SubjectID,Device,ActivityID,TrialNo,Fall,Mean Acc X,Std Acc X,Rng Acc X,Mean Acc Y,Std Acc Y,Rng Acc Y,Mean Acc Z,Std Acc Z,Rng Acc Z,Mean Gyr X,Std Gyr X,Rng Gyr X,Mean Gyr Y,Std Gyr Y,Rng Gyr Y,Mean Gyr Z,Std Gyr Z,Rng Gyr Z,Mean Mag X,Std Mag X,Rng Mag X,Mean Mag Y,Std Mag Y,Rng Mag Y,Mean Mag Z,Std Mag Z,Rng Mag Z,Mean Bar X,Std Bar X,Rng Bar X,Mean Bar Y,Std Bar Y,Rng Bar Y
1,Neck,13,1,No Fall,0.9656503504201668,0.05604832389672855,0.46652799999999994,0.9656503504201668,0.05604832389672855,0.46652799999999994,0.9656503504201668,0.05604832389672855,0.46652799999999994,5.075955882352948,10.87961458613841,124.46000000000001,5.075955882352948,10.87961458613841,124.46000000000001,5.075955882352948,10.87961458613841,124.46000000000001,0.2463156499999998,0.1258287405525688,0.49391999999999997,0.2463156499999998,0.1258287405525688,0.49391999999999997,0.2463156499999998,0.1258287405525688,0.49391999999999997,12.159584430620367,0.0004702137729610007,0.0028221659552638556,0.28545510844802857,0.0005058622491712997,0.001762751483917191
1,Neck,13,2,No Fall,0.966358360504199,0.032714839241953717,0.320616,0.966358360504199,0.032714839241953717,0.320616,0.966358360504199,0.032714839241953717,0.320616,5.2630882352941155,13.146693998953143,159.60000000000002,5.2630882352941155,13.146693998953143,159.60000000000002,5.2630882352941155,13.146693998953143,159.60000000000002,0.29855455000000036,0.04090229283636852,0.22749999999999998,0.29855455000000036,0.04090229283636852,0.22749999999999998,0.29855455000000036,0.04090229283636852,0.22749999999999998,12.158869825236222,0.0005301067529307598,0.0031887680309878874,0.29007786169137956,0.00043335527078438804,0.0014868425559997345
1,Neck,13,3,No Fall,0.9724285781512602,0.06198623632192569,0.609756,0.9724285781512602,0.06198623632192569,0.609756,0.9724285781512602,0.06198623632192569,0.609756,5.410014705882352,12.6474177278862,184.38000000000002,5.410014705882352,12.6474177278862,184.38000000000002,5.410014705882352,12.6474177278862,184.38000000000002,0.0652708875,0.1136317492175109,0.34621999999999997,0.0652708875,0.1136317492175109,0.34621999999999997,0.0652708875,0.1136317492175109,0.34621999999999997,12.157660453904812,0.0011028775532818847,0.005182567231198476,0.2945401440433502,0.0003912874961806856,0.0013125842857360515
1,Neck,13,4,No Fall,0.9671803739495795,0.040854925573111246,0.43602799999999997,0.9671803739495795,0.040854925573111246,0.43602799999999997,0.9671803739495795,0.040854925573111246,0.43602799999999997,5.488117647058814,13.480346672228846,176.40000000000003,5.488117647058814,13.480346672228846,176.40000000000003,5.488117647058814,13.480346672228846,176.40000000000003,-0.004765775000000001,0.04395528005601117,0.27412,-0.004765775000000001,0.04395528005601117,0.27412,-0.004765775000000001,0.04395528005601117,0.27412,12.157787957620393,0.000535052532898623,0.003057808131767814,0.2973698805295946,0.00036323992185825847,0.0012980627632140918
1,Neck,13,5,No Fall,0.9592532957983235,0.05802380530476112,0.5455839999999998,0.9592532957983235,0.05802380530476112,0.5455839999999998,0.9592532957983235,0.05802380530476112,0.5455839999999998,4.716529411764722,13.49759331715482,110.46000000000001,4.716529411764722,13.49759331715482,110.46000000000001,4.716529411764722,13.49759331715482,110.46000000000001,0.1976257499999996,0.11378735457081844,0.50876,0.1976257499999996,0.11378735457081844,0.50876,0.1976257499999996,0.11378735457081844,0.50876,12.15903219694861,0.0007389255959816136,0.004025961885840701,0.3067961113978387,0.0005331847400647221,0.0018176105690002609
1,Neck,13,6,No Fall,0.9544681277310916,0.03992813013329903,0.6012160000000001,0.9544681277310916,0.03992813013329903,0.6012160000000001,0.9544681277310916,0.03992813013329903,0.6012160000000001,5.467588235294122,15.491530502738522,177.24,5.467588235294122,15.491530502738522,177.24,5.467588235294122,15.491530502738522,177.24,0.26603071249999993,0.04812286196959744,0.26264,0.26603071249999993,0.04812286196959744,0.26264,0.26603071249999993,0.04812286196959744,0.26264,12.158346387745551,0.0004728468258516859,0.002825391622032214,0.31043172784395223,0.00035316173064665516,0.0012238416481017977
1,Neck,13,7,No Fall,0.9586852781512659,0.054690571097488996,0.5106920000000001,0.9586852781512659,0.054690571097488996,0.5106920000000001,0.9586852781512659,0.054690571097488996,0.5106920000000001,5.128294117647063,12.035496710879281,144.2,5.128294117647063,12.035496710879281,144.2,5.128294117647063,12.035496710879281,144.2,0.023384462500000158,0.11105985477626668,0.35475999999999996,0.023384462500000158,0.11105985477626668,0.35475999999999996,0.023384462500000158,0.11105985477626668,0.35475999999999996,12.158534312436933,0.0009421215273269581,0.0057083679729732495,0.31366170976095187,0.0002802581666578784,0.0009398652076720859
1,Neck,13,8,No Fall,0.9483459831932799,0.026640058023830706,0.462136,0.9483459831932799,0.026640058023830706,0.462136,0.9483459831932799,0.026640058023830706,0.462136,5.323441176470594,14.602928936432239,226.8,5.323441176470594,14.602928936432239,226.8,5.323441176470594,14.602928936432239,226.8,-0.06536661249999991,0.04430547577912759,0.27552,-0.06536661249999991,0.04430547577912759,0.27552,-0.06536661249999991,0.04430547577912759,0.27552,12.15866452673165,0.00047298719109334293,0.0030287441434087015,0.31565257016115195,0.00024405953740798338,0.0008833926200866871
1,Neck,13,9,No Fall,0.9418896201680625,0.06848239764737958,0.646356,0.9418896201680625,0.06848239764737958,0.646356,0.9418896201680625,0.06848239764737958,0.646356,5.228000000000019,13.948937414840996,160.51000000000002,5.228000000000019,13.948937414840996,160.51000000000002,5.228000000000019,13.948937414840996,160.51000000000002,0.17645468749999974,0.10528215513155892,0.50106,0.17645468749999974,0.10528215513155892,0.50106,0.17645468749999974,0.10528215513155892,0.50106,12.15906719116108,0.00070558693440422,0.003385560132985077,0.3229742774454117,0.000273540394464464,0.0009043681526185732
1,Neck,13,10,No Fall,0.945786136134455,0.02858895763262117,0.297192,0.945786136134455,0.02858895763262117,0.297192,0.945786136134455,0.02858895763262117,0.297192,5.198573529411763,13.601978492650767,147.35000000000002,5.198573529411763,13.601978492650767,147.35000000000002,5.198573529411763,13.601978492650767,147.35000000000002,0.2666874874999993,0.04371669530159398,0.2562,0.2666874874999993,0.04371669530159398,0.2562,0.2666874874999993,0.04371669530159398,0.2562,12.158360430445764,0.0006065627012475797,0.002851701117538852,0.324742873842144,0.00023243282372752684,0.0008583833312987843
1,Neck,13,12,No Fall,0.9305354184873973,0.06308207427210656,0.867176,0.9305354184873973,0.06308207427210656,0.867176,0.9305354184873973,0.06308207427210656,0.867176,6.352588235294143,18.093877239325636,221.13,6.352588235294143,18.093877239325636,221.13,6.352588235294143,18.093877239325636,221.13,0.06697967500000003,0.09634150827280806,0.30155999999999994,0.06697967500000003,0.09634150827280806,0.30155999999999994,0.06697967500000003,0.09634150827280806,0.30155999999999994,12.145122277906037,0.010394281968373045,0.06536659924375066,0.3283285362507822,0.00037558042343137707,0.0014618332672118872
1,Neck,14,1,No Fall,0.9671176823529419,0.057148892623382914,0.5353359999999999,0.9671176823529419,0.057148892623382914,0.5353359999999999,0.9671176823529419,0.057148892623382914,0.5353359999999999,5.17051470588235,13.535866177486438,132.93,5.17051470588235,13.535866177486438,132.93,5.17051470588235,13.535866177486438,132.93,0.27340337500000017,0.08721343641200664,0.40431999999999996,0.27340337500000017,0.08721343641200664,0.40431999999999996,0.27340337500000017,0.08721343641200664,0.40431999999999996,12.159388206354016,0.0005180016395285229,0.0031296912314271452,0.28771435482072827,0.00046574317196651114,0.0016159227561950429
1,Neck,14,2,No Fall,0.9653077764705864,0.03237553069658177,0.2381439999999999,0.9653077764705864,0.03237553069658177,0.2381439999999999,0.9653077764705864,0.03237553069658177,0.2381439999999999,4.83957352941177,13.499947324920875,175.07000000000002,4.83957352941177,13.499947324920875,175.07000000000002,4.83957352941177,13.499947324920875,175.07000000000002,0.29043717500000016,0.04551210098539115,0.2506,0.29043717500000016,0.04551210098539115,0.2506,0.29043717500000016,0.04551210098539115,0.2506,12.158421759767949,0.0007009964434564232,0.003242797047311896,0.2921106449203491,0.0004188010402406552,0.0014602197647093917
1,Neck,14,3,No Fall,0.9680733319327732,0.05002586485403844,0.45066799999999996,0.9680733319327732,0.05002586485403844,0.45066799999999996,0.9680733319327732,0.05002586485403844,0.45066799999999996,6.279705882352943,13.041975872070315,152.88,6.279705882352943,13.041975872070315,152.88,6.279705882352943,13.041975872070315,152.88,0.04761321249999999,0.10210973816351805,0.36722,0.04761321249999999,0.10210973816351805,0.36722,0.04761321249999999,0.10210973816351805,0.36722,12.157748484904232,0.0012126103156326414,0.004780266723646065,0.29542078564167035,0.00036544861788598103,0.0012924155044555241
1,Neck,14,4,No Fall,0.962839224369747,0.041619944792819615,0.2737680000000001,0.962839224369747,0.041619944792819615,0.2737680000000001,0.962839224369747,0.041619944792819615,0.2737680000000001,4.882411764705889,14.288477188130821,143.64000000000001,4.882411764705889,14.288477188130821,143.64000000000001,4.882411764705889,14.288477188130821,143.64000000000001,-0.004376575000000005,0.057228539281874935,0.34482,-0.004376575000000005,0.057228539281874935,0.34482,-0.004376575000000005,0.057228539281874935,0.34482,12.158080942321547,0.0006978631552941286,0.003517451665871363,0.29826573342275625,0.00037089008500903824,0.0013238788032532978
1,Neck,14,5,No Fall,0.9596301117647061,0.05736633906230497,0.575352,0.9596301117647061,0.05736633906230497,0.575352,0.9596301117647061,0.05736633906230497,0.575352,4.7561470588235135,13.41614905949876,148.26,4.7561470588235135,13.41614905949876,148.26,4.7561470588235135,13.41614905949876,148.26,0.20346173750000002,0.11080542134347723,0.4912599999999999,0.20346173750000002,0.11080542134347723,0.4912599999999999,0.20346173750000002,0.11080542134347723,0.4912599999999999,12.159305058339354,0.000664531082123928,0.0038059905354845824,0.3082836074223518,0.0004153009984987333,0.0014650602722168227
1,Neck,14,6,No Fall,0.9532394647058825,0.03496801532554494,0.48165599999999986,0.9532394647058825,0.03496801532554494,0.48165599999999986,0.9532394647058825,0.03496801532554494,0.48165599999999986,4.780838235294125,15.54483529202661,179.97000000000003,4.780838235294125,15.54483529202661,179.97000000000003,4.780838235294125,15.54483529202661,179.97000000000003,0.2679714624999996,0.051020966594687855,0.2996,0.2679714624999996,0.051020966594687855,0.2996,0.2679714624999996,0.051020966594687855,0.2996,12.158370835242138,0.0004885917136649739,0.003317024070444319,0.3122114170703888,0.00030052037110173645,0.0010947614479064338
1,Neck,14,7,No Fall,0.9593220873949594,0.05931720079339011,0.4914160000000001,0.9593220873949594,0.05931720079339011,0.4914160000000001,0.9593220873949594,0.05931720079339011,0.4914160000000001,4.727352941176463,10.7200551413248,128.17000000000002,4.727352941176463,10.7200551413248,128.17000000000002,4.727352941176463,10.7200551413248,128.17000000000002,0.01029796249999998,0.11244499871796888,0.37351999999999996,0.01029796249999998,0.11244499871796888,0.37351999999999996,0.01029796249999998,0.11244499871796888,0.37351999999999996,12.15908478128269,0.000680225106698838,0.00408559277329168,0.3143204382925987,0.00018563614412020276,0.0006865453147887335
1,Neck,14,8,No Fall,0.9466959075630265,0.029351280201392854,0.3699040000000001,0.9466959075630265,0.029351280201392854,0.3699040000000001,0.9466959075630265,0.029351280201392854,0.3699040000000001,5.122529411764703,12.552813821964033,132.86,5.122529411764703,12.552813821964033,132.86,5.122529411764703,12.552813821964033,132.86,-0.07272824999999979,0.038617249020206995,0.25914,-0.07272824999999979,0.038617249020206995,0.25914,-0.07272824999999979,0.038617249020206995,0.25914,12.15893120340612,0.0004991129341785183,0.003113813119249187,0.31625086899032584,0.0002137694582672847,0.0007696406936646416
1,Neck,14,9,No Fall,0.9488177848739516,0.0651149828953426,0.708576,0.9488177848739516,0.0651149828953426,0.708576,0.9488177848739516,0.0651149828953426,0.708576,5.7202352941176615,13.827256982728523,140.42000000000002,5.7202352941176615,13.827256982728523,140.42000000000002,5.7202352941176615,13.827256982728523,140.42000000000002,0.2067178749999999,0.08744283947152937,0.46773999999999993,0.2067178749999999,0.08744283947152937,0.46773999999999993,0.2067178749999999,0.08744283947152937,0.46773999999999993,12.15908196157932,0.0005182989123469789,0.003077477342495527,0.3236242204559325,0.0001632205788554763,0.0005808609008788879
1,Neck,14,10,No Fall,0.9476370504201668,0.03565597579351523,0.49532,0.9476370504201668,0.03565597579351523,0.49532,0.9476370504201668,0.03565597579351523,0.49532,4.918176470588239,14.158902778043071,190.54000000000002,4.918176470588239,14.158902778043071,190.54000000000002,4.918176470588239,14.158902778043071,190.54000000000002,0.26651169999999946,0.039769913343689914,0.24178,0.26651169999999946,0.039769913343689914,0.24178,0.26651169999999946,0.039769913343689914,0.24178,12.158450434715997,0.0005246219214820267,0.003262684695792828,0.32607401744041425,0.00021412097171608533,0.0007688339424133384
1,Neck,15,1,No Fall,0.9614386336134434,0.1348980164308613,2.265052,0.9614386336134434,0.1348980164308613,2.265052,0.9614386336134434,0.1348980164308613,2.265052,4.988691176470585,15.073074393214462,180.67000000000002,4.988691176470585,15.073074393214462,180.67000000000002,4.988691176470585,15.073074393214462,180.67000000000002,0.3104324124999998,0.04747572596103243,0.2861599999999999,0.3104324124999998,0.04747572596103243,0.2861599999999999,0.3104324124999998,0.04747572596103243,0.2861599999999999,12.159048950452439,0.0004052325560744605,0.002459823498238478,0.2910680197720527,0.0004251202286445461,0.0014586062622069518
1,Neck,15,2,No Fall,0.9566733033613439,0.1667064531533422,3.218848,0.9566733033613439,0.1667064531533422,3.218848,0.9566733033613439,0.1667064531533422,3.218848,5.17848529411766,19.376248122283037,266.07000000000005,5.17848529411766,19.376248122283037,266.07000000000005,5.17848529411766,19.376248122283037,266.07000000000005,0.28762247500000004,0.04746079655758594,0.34552000000000005,0.28762247500000004,0.04746079655758594,0.34552000000000005,0.28762247500000004,0.04746079655758594,0.34552000000000005,12.158487052094847,0.00044090414308368584,0.00273871664061609,0.3113834361599923,0.00034376275804364023,0.0012052863693236548
1,Neck,15,3,No Fall,0.9339659764705899,0.177810018456886,3.45016,0.9339659764705899,0.177810018456886,3.45016,0.9339659764705899,0.177810018456886,3.45016,5.49316176470588,17.88980383396606,348.11,5.49316176470588,17.88980383396606,348.11,5.49316176470588,17.88980383396606,348.11,0.2642414249999997,0.056894354550400594,0.31304,0.2642414249999997,0.056894354550400594,0.31304,0.2642414249999997,0.056894354550400594,0.31304,12.158817383505987,0.00046590622583949666,0.002806205099364689,0.32540925844316493,0.00023404621552376817,0.0008487023162841445
1,Neck,16,1,No Fall,0.5821878957983178,0.36791545286276334,1.066768,0.5821878957983178,0.36791545286276334,1.066768,0.5821878957983178,0.36791545286276334,1.066768,4.824926470588277,12.759177784222937,125.79000000000002,4.824926470588277,12.759177784222937,125.79000000000002,4.824926470588277,12.759177784222937,125.79000000000002,0.23657313749999997,0.06939168900682999,0.32858,0.23657313749999997,0.06939168900682999,0.32858,0.23657313749999997,0.06939168900682999,0.32858,12.158756767714808,0.0005391328498379841,0.0033335056073511282,0.2999045679144859,0.0003237977721096053,0.001138326015472424
1,Neck,16,2,No Fall,0.4588491764705828,0.448302353968788,1.7277639999999999,0.4588491764705828,0.448302353968788,1.7277639999999999,0.4588491764705828,0.448302353968788,1.7277639999999999,5.045352941176545,13.675527469422795,150.29000000000002,5.045352941176545,13.675527469422795,150.29000000000002,5.045352941176545,13.675527469422795,150.29000000000002,0.18406115000000012,0.07587377421537725,0.36568,0.18406115000000012,0.07587377421537725,0.36568,0.18406115000000012,0.07587377421537725,0.36568,12.15864397467234,0.000488978644586375,0.0025773277410223727,0.3047909472979546,0.0003891253681546733,0.0013561488533020971
1,Neck,16,3,No Fall,0.44678199243697725,0.5358647319056088,1.8422,0.44678199243697725,0.5358647319056088,1.8422,0.44678199243697725,0.5358647319056088,1.8422,4.363338235294102,15.332979079702008,231.98000000000002,4.363338235294102,15.332979079702008,231.98000000000002,4.363338235294102,15.332979079702008,231.98000000000002,0.14656223749999994,0.11142506669809094,0.5628,0.14656223749999994,0.11142506669809094,0.5628,0.14656223749999994,0.11142506669809094,0.5628,12.15908944467296,0.0009507356933371484,0.0048838689394319346,0.3172204831503869,0.000247475602401701,0.0008325672912597448
1,Neck,16,4,No Fall,0.5866876453781509,0.3721833770244579,1.238544,0.5866876453781509,0.3721833770244579,1.238544,0.5866876453781509,0.3721833770244579,1.238544,3.129617647058823,19.346210195790796,154.42000000000002,3.129617647058823,19.346210195790796,154.42000000000002,3.129617647058823,19.346210195790796,154.42000000000002,0.024719887500000003,0.1158094419056966,0.53186,0.024719887500000003,0.1158094419056966,0.53186,0.024719887500000003,0.1158094419056966,0.53186,12.159112197903456,0.0013864531093160356,0.005785762544698869,0.31990114814043025,0.0002544983509289671,0.0009108221626281665
1,Neck,16,5,No Fall,0.5340781184873993,0.4378486925362782,1.263188,0.5340781184873993,0.4378486925362782,1.263188,0.5340781184873993,0.4378486925362782,1.263188,4.564147058823517,20.40654495959236,162.75,4.564147058823517,20.40654495959236,162.75,4.564147058823517,20.40654495959236,162.75,0.0485300375,0.09007179858069239,0.45247999999999994,0.0485300375,0.09007179858069239,0.45247999999999994,0.0485300375,0.09007179858069239,0.45247999999999994,12.158135861202506,0.0014066300144437082,0.00557071044065971,0.3301344610279084,0.0002632071242677931,0.0008495090675354477
1,Neck,17,1,No Fall,0.36458690168067315,0.2569154284444192,1.057008,0.36458690168067315,0.2569154284444192,1.057008,0.36458690168067315,0.2569154284444192,1.057008,5.125794117647084,9.39551894102149,103.11000000000001,5.125794117647084,9.39551894102149,103.11000000000001,5.125794117647084,9.39551894102149,103.11000000000001,0.06766628749999985,0.135594367014069,0.46928,0.06766628749999985,0.135594367014069,0.46928,0.06766628749999985,0.135594367014069,0.46928,12.159438879591242,0.0006373331569024085,0.003108349630007723,0.3008828627180099,0.0005417457793636548,0.0017966350364684303
1,Neck,17,2,No Fall,0.2529819168067229,0.21221635753871473,0.8288679999999999,0.2529819168067229,0.21221635753871473,0.8288679999999999,0.2529819168067229,0.21221635753871473,0.8288679999999999,5.851455882352921,12.866102416310602,216.72000000000003,5.851455882352921,12.866102416310602,216.72000000000003,5.851455882352921,12.866102416310602,216.72000000000003,0.028865812499999935,0.11933742292878795,0.41187999999999997,0.028865812499999935,0.11933742292878795,0.41187999999999997,0.028865812499999935,0.11933742292878795,0.41187999999999997,12.159419409267043,0.0006438295337631243,0.0032954580698163483,0.30602713627395606,0.0006163770065906904,0.0019329759979248018
1,Neck,17,3,No Fall,0.05984515210084014,0.20924689473896402,0.701256,0.05984515210084014,0.20924689473896402,0.701256,0.05984515210084014,0.20924689473896402,0.701256,6.651323529411741,7.211952979817465,61.39,6.651323529411741,7.211952979817465,61.39,6.651323529411741,7.211952979817465,61.39,-0.03690137499999997,0.12822335823908282,0.357,-0.03690137499999997,0.12822335823908282,0.357,-0.03690137499999997,0.12822335823908282,0.357,12.159948375970291,0.0006298592523264064,0.0033171933212141624,0.3179378705655099,0.00021890908704636056,0.0008099782562255853
1,Neck,17,4,No Fall,0.16318299663865518,0.12036087288211533,0.89182,0.16318299663865518,0.12036087288211533,0.89182,0.16318299663865518,0.12036087288211533,0.89182,6.08507352941174,10.37332865875501,94.85000000000002,6.08507352941174,10.37332865875501,94.85000000000002,6.08507352941174,10.37332865875501,94.85000000000002,0.13396556249999994,0.2202129502844449,0.60732,0.13396556249999994,0.2202129502844449,0.60732,0.13396556249999994,0.2202129502844449,0.60732,12.160015821150148,0.000578808225028998,0.0030021294510849117,0.3208160282618522,0.0002938925349485068,0.0010407091140747227
1,Neck,17,5,No Fall,0.14851998067226868,0.14751050199462673,0.905972,0.14851998067226868,0.14751050199462673,0.905972,0.14851998067226868,0.14751050199462673,0.905972,6.684558823529392,21.33080877213045,390.39,6.684558823529392,21.33080877213045,390.39,6.684558823529392,21.33080877213045,390.39,0.24682734999999995,0.2785932312688081,0.7677599999999999,0.24682734999999995,0.2785932312688081,0.7677599999999999,0.24682734999999995,0.2785932312688081,0.7677599999999999,12.158882139819738,0.0006236443161872858,0.0032007124343156335,0.3312966709141732,0.000339091637758411,0.0011391327667236162
1,Neck,17,6,No Fall,0.38477605630252093,0.22342764922393848,1.4510679999999998,0.38477605630252093,0.22342764922393848,1.4510679999999998,0.38477605630252093,0.22342764922393848,1.4510679999999998,3.777970588235292,19.08925817090393,294.91,3.777970588235292,19.08925817090393,294.91,3.777970588235292,19.08925817090393,294.91,0.19021765000000004,0.15934065009661164,0.58646,0.19021765000000004,0.15934065009661164,0.58646,0.19021765000000004,0.15934065009661164,0.58646,12.159452348652515,0.0008136171741479239,0.0036965891614801905,0.333538781890297,0.00013744831103961795,0.0004929250144958264
1,Neck,18,1,No Fall,0.7715018571428571,0.13072523926129684,0.635132,0.7715018571428571,0.13072523926129684,0.635132,0.7715018571428571,0.13072523926129684,0.635132,2.610058823529409,14.57862750427092,92.4,2.610058823529409,14.57862750427092,92.4,2.610058823529409,14.57862750427092,92.4,0.12747472499999998,0.15588251487162078,0.6880999999999999,0.12747472499999998,0.15588251487162078,0.6880999999999999,0.12747472499999998,0.15588251487162078,0.6880999999999999,12.159393541521379,0.0006572798615177526,0.003843777080389188,0.3025387963025091,0.0004655945194612917,0.0016377050399780657
1,Neck,18,2,No Fall,0.6492397621848741,0.22006216004916096,0.69296,0.6492397621848741,0.22006216004916096,0.69296,0.6492397621848741,0.22006216004916096,0.69296,6.854720588235285,13.45899034329122,116.34000000000002,6.854720588235285,13.45899034329122,116.34000000000002,6.854720588235285,13.45899034329122,116.34000000000002,0.15415461249999987,0.20610916911001118,0.70994,0.15415461249999987,0.20610916911001118,0.70994,0.15415461249999987,0.20610916911001118,0.70994,12.159179621404274,0.000846439014432203,0.004081791417865688,0.30733226214437487,0.0004700493078789733,0.001656260318756042
1,Neck,18,3,No Fall,0.5871014201680689,0.35202450434848725,1.1504599999999998,0.5871014201680689,0.35202450434848725,1.1504599999999998,0.5871014201680689,0.35202450434848725,1.1504599999999998,8.409794117647037,20.17347639196004,188.23000000000002,8.409794117647037,20.17347639196004,188.23000000000002,8.409794117647037,20.17347639196004,188.23000000000002,0.0129994375000001,0.1854037620270747,0.7,0.0129994375000001,0.1854037620270747,0.7,0.0129994375000001,0.1854037620270747,0.7,12.15998986657035,0.0006627401007052115,0.0035269766147507653,0.31864599244251257,0.00018825377575346804,0.0006171647071838704
1,Neck,18,4,No Fall,0.6269629722689072,0.333891742696749,0.8891359999999999,0.6269629722689072,0.333891742696749,0.8891359999999999,0.6269629722689072,0.333891742696749,0.8891359999999999,5.54011764705884,17.130808207961927,177.03000000000003,5.54011764705884,17.130808207961927,177.03000000000003,5.54011764705884,17.130808207961927,177.03000000000003,0.28720448750000044,0.08479971450630039,0.39158,0.28720448750000044,0.08479971450630039,0.39158,0.28720448750000044,0.08479971450630039,0.39158,12.158905947072505,0.0008936159571548388,0.0036879029537040253,0.32175403794164653,0.0002571751770200445,0.0009430922126769103
1,Neck,18,5,No Fall,0.599830992436976,0.31893150568208734,1.051884,0.599830992436976,0.31893150568208734,1.051884,0.599830992436976,0.31893150568208734,1.051884,5.508985294117633,21.2855000094732,225.96000000000004,5.508985294117633,21.2855000094732,225.96000000000004,5.508985294117633,21.2855000094732,225.96000000000004,0.3531462375000002,0.186036088640797,0.5348,0.3531462375000002,0.186036088640797,0.5348,0.3531462375000002,0.186036088640797,0.5348,12.158722765869543,0.0008130661280094239,0.004753672753741611,0.3321552236632347,0.0002030166484766972,0.0006897723197936134
1,Neck,18,6,No Fall,0.6762416941176468,0.31584085244694987,1.125572,0.6762416941176468,0.31584085244694987,1.125572,0.6762416941176468,0.31584085244694987,1.125572,4.968088235294111,15.590989228241396,171.08,4.968088235294111,15.590989228241396,171.08,4.968088235294111,15.590989228241396,171.08,0.28975485000000006,0.05857229556374974,0.27412,0.28975485000000006,0.05857229556374974,0.27412,0.28975485000000006,0.05857229556374974,0.27412,12.158036258805081,0.0008834241496498625,0.003801954390349138,0.3341416711340905,0.000184029688787671,0.0006405604934691111
1,Neck,19,1,No Fall,0.9430587697479,0.10069049082640684,0.7795799999999999,0.9430587697479,0.10069049082640684,0.7795799999999999,0.9430587697479,0.10069049082640684,0.7795799999999999,5.12498529411766,11.836813768979663,91.14000000000001,5.12498529411766,11.836813768979663,91.14000000000001,5.12498529411766,11.836813768979663,91.14000000000001,0.08201952500000009,0.05139081303661906,0.31402,0.08201952500000009,0.05139081303661906,0.31402,0.08201952500000009,0.05139081303661906,0.31402,12.30142027607676,0.0008630964621119711,0.005984089154063454,0.32910590965518954,0.0007318021909311807,0.0024726925849913872
1,Neck,19,2,No Fall,0.9445389680672263,0.0881858240651181,0.7036960000000001,0.9445389680672263,0.0881858240651181,0.7036960000000001,0.9445389680672263,0.0881858240651181,0.7036960000000001,5.268176470588216,7.68567692465945,68.81,5.268176470588216,7.68567692465945,68.81,5.268176470588216,7.68567692465945,68.81,0.14476971250000006,0.04339915202414793,0.18409999999999999,0.14476971250000006,0.04339915202414793,0.18409999999999999,0.14476971250000006,0.04339915202414793,0.18409999999999999,12.301393065481172,0.000493838200423872,0.0027735481781867577,0.3225972140118596,0.0004354880506024002,0.0014037471771239929
1,Neck,19,4,No Fall,0.9455985226890783,0.12781734706023032,1.0043039999999999,0.9455985226890783,0.12781734706023032,1.0043039999999999,0.9455985226890783,0.12781734706023032,1.0043039999999999,5.332014705882341,7.376353941754899,60.34,5.332014705882341,7.376353941754899,60.34,5.332014705882341,7.376353941754899,60.34,-0.02213837499999998,0.060698070926869435,0.20845999999999998,-0.02213837499999998,0.060698070926869435,0.20845999999999998,-0.02213837499999998,0.060698070926869435,0.20845999999999998,12.297389497030498,0.0010730908471082204,0.005045061422400465,0.31352855143318176,0.00010798688061974303,0.0003864338493347885
1,Neck,19,6,No Fall,0.9537887722689092,0.13428043473424872,0.9813679999999999,0.9537887722689092,0.13428043473424872,0.9813679999999999,0.9537887722689092,0.13428043473424872,0.9813679999999999,5.54141176470588,8.11819766506387,85.05000000000001,5.54141176470588,8.11819766506387,85.05000000000001,5.54141176470588,8.11819766506387,85.05000000000001,0.044783637500000056,0.05590132131351159,0.23856,0.044783637500000056,0.05590132131351159,0.23856,0.044783637500000056,0.05590132131351159,0.23856,12.29521844503372,0.0017574298566288634,0.012402591181331246,0.3202152688413618,0.00016748038552672522,0.0005857014083861523
1,Neck,20,1,No Fall,0.9444248109243678,0.09697479107962821,0.519232,0.9444248109243678,0.09697479107962821,0.519232,0.9444248109243678,0.09697479107962821,0.519232,5.778808823529401,6.884841994173143,46.480000000000004,5.778808823529401,6.884841994173143,46.480000000000004,5.778808823529401,6.884841994173143,46.480000000000004,0.18586732499999997,0.01850889947955684,0.11549999999999999,0.18586732499999997,0.01850889947955684,0.11549999999999999,0.18586732499999997,0.01850889947955684,0.11549999999999999,12.301658710072617,0.0005636994500251172,0.003209644165476533,0.3262926268607141,0.0004666003385669517,0.0015650974273681562
1,Neck,20,2,No Fall,0.9469736369747881,0.12860186426900144,0.8627839999999999,0.9469736369747881,0.12860186426900144,0.8627839999999999,0.9469736369747881,0.12860186426900144,0.8627839999999999,7.206808823529408,10.424247803186866,72.66000000000001,7.206808823529408,10.424247803186866,72.66000000000001,7.206808823529408,10.424247803186866,72.66000000000001,0.17966515000000008,0.05873673014515791,0.25788,0.17966515000000008,0.05873673014515791,0.25788,0.17966515000000008,0.05873673014515791,0.25788,12.3003886047222,0.000606446288223626,0.0030821371858067437,0.32101028589563363,0.0005677040663318608,0.0019160342216492654
1,Neck,20,3,No Fall,0.9554590445378136,0.11539846892414234,0.841312,0.9554590445378136,0.11539846892414234,0.841312,0.9554590445378136,0.11539846892414234,0.841312,5.292294117647064,5.824693168222419,34.370000000000005,5.292294117647064,5.824693168222419,34.370000000000005,5.292294117647064,5.824693168222419,34.370000000000005,0.16703785000000024,0.04247785862862611,0.22876,0.16703785000000024,0.04247785862862611,0.22876,0.16703785000000024,0.04247785862862611,0.22876,12.296636805140563,0.003000278575383187,0.014592801994558258,0.3128728603199959,0.00019897158205384912,0.0008841993713378238
1,Neck,20,4,No Fall,0.9551402554621848,0.16796722606333633,1.033096,0.9551402554621848,0.16796722606333633,1.033096,0.9551402554621848,0.16796722606333633,1.033096,4.935558823529411,10.111816454295699,80.99000000000001,4.935558823529411,10.111816454295699,80.99000000000001,4.935558823529411,10.111816454295699,80.99000000000001,0.19532975000000022,0.06672805385795236,0.26389999999999997,0.19532975000000022,0.06672805385795236,0.26389999999999997,0.19532975000000022,0.06672805385795236,0.26389999999999997,12.290654975259423,0.0049553898140953095,0.019106585894698824,0.3135907317858699,0.0002485072180976529,0.0007631866836547152
1,Neck,21,1,No Fall,0.9427347008403367,0.05856868573059238,0.48287599999999986,0.9427347008403367,0.05856868573059238,0.48287599999999986,0.9427347008403367,0.05856868573059238,0.48287599999999986,7.176132352941205,7.19621034341739,59.290000000000006,7.176132352941205,7.19621034341739,59.290000000000006,7.176132352941205,7.19621034341739,59.290000000000006,0.11358226249999998,0.10525806439511515,0.35056,0.11358226249999998,0.10525806439511515,0.35056,0.11358226249999998,0.10525806439511515,0.35056,12.30114758081842,0.0006174785693655605,0.0033548909427345563,0.3238715824908256,0.00033549728607262634,0.0012819277381897476
1,Neck,21,2,No Fall,0.9492123882352951,0.09063850889643023,0.8730319999999999,0.9492123882352951,0.09063850889643023,0.8730319999999999,0.9492123882352951,0.09063850889643023,0.8730319999999999,7.151588235294116,9.469708351054555,87.08000000000001,7.151588235294116,9.469708351054555,87.08000000000001,7.151588235294116,9.469708351054555,87.08000000000001,0.0827140125,0.09552019763378491,0.31234,0.0827140125,0.09552019763378491,0.31234,0.0827140125,0.09552019763378491,0.31234,12.299679548877084,0.000462911208473627,0.0029025319924933513,0.31952614999008194,0.0002773889690069245,0.000977782516479453
1,Neck,21,3,No Fall,0.9471431554621834,0.08273860465642947,0.768844,0.9471431554621834,0.08273860465642947,0.768844,0.9471431554621834,0.08273860465642947,0.768844,4.639352941176462,4.137016597300688,30.870000000000005,4.639352941176462,4.137016597300688,30.870000000000005,4.639352941176462,4.137016597300688,30.870000000000005,-0.003259899999999948,0.08202996481130771,0.24023999999999998,-0.003259899999999948,0.08202996481130771,0.24023999999999998,-0.003259899999999948,0.08202996481130771,0.24023999999999998,12.297905419337047,0.0011019299054776364,0.007152391569768213,0.3132911447087287,0.00019328596793150008,0.0006316862297057746
1,Neck,21,4,No Fall,0.9573577848739513,0.11917066288374556,0.900848,0.9573577848739513,0.11917066288374556,0.900848,0.9573577848739513,0.11917066288374556,0.900848,5.395588235294115,6.523420887721801,50.89000000000001,5.395588235294115,6.523420887721801,50.89000000000001,5.395588235294115,6.523420887721801,50.89000000000001,0.07576887500000001,0.032701753877675245,0.14237999999999998,0.07576887500000001,0.032701753877675245,0.14237999999999998,0.07576887500000001,0.032701753877675245,0.14237999999999998,12.298018616541365,0.0014769747480605883,0.008144730116868004,0.3139407972887994,0.0001700748215202851,0.0005994161796569752
1,Neck,21,5,No Fall,0.9516134302521002,0.09892491512743234,0.8037360000000001,0.9516134302521002,0.09892491512743234,0.8037360000000001,0.9516134302521002,0.09892491512743234,0.8037360000000001,5.507558823529414,5.422975765702471,39.27,5.507558823529414,5.422975765702471,39.27,5.507558823529414,5.422975765702471,39.27,0.09527988749999997,0.02999668670029183,0.11746000000000001,0.09527988749999997,0.02999668670029183,0.11746000000000001,0.09527988749999997,0.02999668670029183,0.11746000000000001,12.29587499118843,0.001388545114561745,0.007478870921953984,0.3197049058985711,0.000171670919609757,0.0006712170410156926
1,Neck,22,1,No Fall,0.9599256798319301,0.22928130179665782,1.197552,0.9599256798319301,0.22928130179665782,1.197552,0.9599256798319301,0.22928130179665782,1.197552,7.2030294117647085,13.990788593902668,102.27000000000001,7.2030294117647085,13.990788593902668,102.27000000000001,7.2030294117647085,13.990788593902668,102.27000000000001,0.1123212125000001,0.10963734538454123,0.43931999999999993,0.1123212125000001,0.10963734538454123,0.43931999999999993,0.1123212125000001,0.10963734538454123,0.43931999999999993,12.300508308685048,0.0007565125823189803,0.004094022841584888,0.3175994787531851,9.142874841551784e-05,0.00037271907806396554
1,Neck,22,2,No Fall,0.9620577579831939,0.2512685622860354,1.2724600000000001,0.9620577579831939,0.2512685622860354,1.2724600000000001,0.9620577579831939,0.2512685622860354,1.2724600000000001,5.7034852941176615,13.848921490524749,101.57000000000001,5.7034852941176615,13.848921490524749,101.57000000000001,5.7034852941176615,13.848921490524749,101.57000000000001,0.1680016624999999,0.05823603262303235,0.24625999999999998,0.1680016624999999,0.05823603262303235,0.24625999999999998,0.1680016624999999,0.05823603262303235,0.24625999999999998,12.298424643886243,0.001161991745575358,0.0058639887117379885,0.315098912912464,0.00019431622522500256,0.0006704102897643338
1,Neck,22,3,No Fall,0.959514057983196,0.25457617952604505,1.24806,0.959514057983196,0.25457617952604505,1.24806,0.959514057983196,0.25457617952604505,1.24806,5.409014705882346,14.617568760557639,97.30000000000001,5.409014705882346,14.617568760557639,97.30000000000001,5.409014705882346,14.617568760557639,97.30000000000001,0.07522707499999996,0.06468838169368767,0.27846,0.07522707499999996,0.06468838169368767,0.27846,0.07522707499999996,0.06468838169368767,0.27846,12.292924480633086,0.0036288276691807224,0.016906626022224813,0.3215969755743027,6.928093470925395e-05,0.0003331882667541586
1,Neck,23,1,No Fall,0.9614097226890733,0.30717203948403354,4.325876,0.9614097226890733,0.30717203948403354,4.325876,0.9614097226890733,0.30717203948403354,4.325876,5.834985294117652,36.376249856815896,687.96,5.834985294117652,36.376249856815896,687.96,5.834985294117652,36.376249856815896,687.96,0.10642344999999999,0.08854124266623183,0.44253999999999993,0.10642344999999999,0.08854124266623183,0.44253999999999993,0.10642344999999999,0.08854124266623183,0.44253999999999993,12.300694300617744,0.001209759003962849,0.008592335513521121,0.3173945962054253,0.000107476757130413,0.0004646887207032102
1,Neck,25,1,No Fall,0.9649157361344513,0.9754100235464532,4.5793919999999995,0.9649157361344513,0.9754100235464532,4.5793919999999995,0.9649157361344513,0.9754100235464532,4.5793919999999995,3.565823529411769,35.634720892540415,427.4200000000001,3.565823529411769,35.634720892540415,427.4200000000001,3.565823529411769,35.634720892540415,427.4200000000001,0.17192034999999975,0.06739725201270666,0.40879999999999994,0.17192034999999975,0.06739725201270666,0.40879999999999994,0.17192034999999975,0.06739725201270666,0.40879999999999994,12.294174391792525,0.005561601932173361,0.023573898100067936,0.3154681185888289,0.0002900788051591796,0.0009769757652282052
1,Neck,25,3,No Fall,0.9723388210084016,1.0827558011726581,5.70838,0.9723388210084016,1.0827558011726581,5.70838,0.9723388210084016,1.0827558011726581,5.70838,4.942161764705888,48.366682120739426,519.33,4.942161764705888,48.366682120739426,519.33,4.942161764705888,48.366682120739426,519.33,0.16249134999999965,0.09008495753960157,0.47137999999999997,0.16249134999999965,0.09008495753960157,0.47137999999999997,0.16249134999999965,0.09008495753960157,0.47137999999999997,12.290253659335672,0.006999897556882791,0.0278519658130314,0.3219153841581344,0.000463572443503318,0.001671588592529305
1,Neck,26,1,No Fall,0.9386122285714266,0.22027191959765566,3.783464,0.9386122285714266,0.22027191959765566,3.783464,0.9386122285714266,0.22027191959765566,3.783464,5.146529411764731,9.19575756475345,239.61,5.146529411764731,9.19575756475345,239.61,5.146529411764731,9.19575756475345,239.61,0.09447357499999981,0.01586218696551506,0.10597999999999999,0.09447357499999981,0.01586218696551506,0.10597999999999999,0.09447357499999981,0.01586218696551506,0.10597999999999999,12.15458109113681,0.0005185474837368423,0.0027851026012424285,0.3355358623426437,0.0003152584629321572,0.0010802399253844741
1,Neck,26,2,No Fall,0.9610102495798332,0.21513249494283765,4.0748,0.9610102495798332,0.21513249494283765,4.0748,0.9610102495798332,0.21513249494283765,4.0748,5.5207941176470605,13.429110630013447,392.21000000000004,5.5207941176470605,13.429110630013447,392.21000000000004,5.5207941176470605,13.429110630013447,392.21000000000004,0.12910773749999982,0.0895394119078805,0.33557999999999993,0.12910773749999982,0.0895394119078805,0.33557999999999993,0.12910773749999982,0.0895394119078805,0.33557999999999993,12.157950408785682,0.000590659845034379,0.003568708978416879,0.3375658824485777,3.240610420049438e-05,0.0001557029914854846
1,Neck,26,3,No Fall,0.9380701999999982,0.18915493620770038,3.334504,0.9380701999999982,0.18915493620770038,3.334504,0.9380701999999982,0.18915493620770038,3.334504,5.655999999999993,13.052924010496122,321.16,5.655999999999993,13.052924010496122,321.16,5.655999999999993,13.052924010496122,321.16,0.092869525,0.024182825691715558,0.15582,0.092869525,0.024182825691715558,0.15582,0.092869525,0.024182825691715558,0.15582,12.157381477653601,0.0004214688873913612,0.002672962066835538,0.33761865204792035,8.72627446144433e-05,0.00030091821670541474
1,Neck,26,4,No Fall,0.9537052689075639,0.20867078844513873,3.229584,0.9537052689075639,0.20867078844513873,3.229584,0.9537052689075639,0.20867078844513873,3.229584,9.011661764705861,12.549686641022708,253.26000000000002,9.011661764705861,12.549686641022708,253.26000000000002,9.011661764705861,12.549686641022708,253.26000000000002,0.10787332500000009,0.08137760744403344,0.34258,0.10787332500000009,0.08137760744403344,0.34258,0.10787332500000009,0.08137760744403344,0.34258,12.15788282140351,0.0006256498582326369,0.0034977978579604496,0.3379111397140501,7.205806639678486e-05,0.0002855899429321518
1,Neck,27,1,No Fall,0.933195377310924,0.24612735798147636,4.695048,0.933195377310924,0.24612735798147636,4.695048,0.933195377310924,0.24612735798147636,4.695048,5.398852941176484,10.843064774109466,201.95000000000002,5.398852941176484,10.843064774109466,201.95000000000002,5.398852941176484,10.843064774109466,201.95000000000002,0.07650194999999999,0.01732099245669263,0.14252,0.07650194999999999,0.01732099245669263,0.14252,0.07650194999999999,0.01732099245669263,0.14252,12.155134838122745,0.0006342928433146678,0.004023183304308731,0.3363947176234249,0.00023665119329706878,0.000859190082550032
1,Neck,27,2,No Fall,0.958964289075631,0.2610840065360808,5.057875999999999,0.958964289075631,0.2610840065360808,5.057875999999999,0.958964289075631,0.2610840065360808,5.057875999999999,6.71870588235295,16.235563446008992,249.48000000000002,6.71870588235295,16.235563446008992,249.48000000000002,6.71870588235295,16.235563446008992,249.48000000000002,0.11016276250000002,0.1305513408241677,0.41972,0.11016276250000002,0.1305513408241677,0.41972,0.11016276250000002,0.1305513408241677,0.41972,12.158072370004291,0.000482628400227118,0.0032016420144831415,0.33755768182210927,4.8916765500817015e-05,0.00026300090789793673
1,Neck,27,3,No Fall,0.9344252705882331,0.2874203225892469,5.518304,0.9344252705882331,0.2874203225892469,5.518304,0.9344252705882331,0.2874203225892469,5.518304,5.351691176470584,16.225531254335046,319.69000000000005,5.351691176470584,16.225531254335046,319.69000000000005,5.351691176470584,16.225531254335046,319.69000000000005,0.0982218999999999,0.02686760003884611,0.19697999999999996,0.0982218999999999,0.02686760003884611,0.19697999999999996,0.0982218999999999,0.02686760003884611,0.19697999999999996,12.156942492454887,0.000628195391172806,0.005039708455475633,0.3378507140453339,5.7696030827134476e-05,0.0002718751716614398
1,Neck,27,4,No Fall,0.9564243823529447,0.2992453930437295,5.906996,0.9564243823529447,0.2992453930437295,5.906996,0.9564243823529447,0.2992453930437295,5.906996,6.549102941176457,16.662110345767186,432.46000000000004,6.549102941176457,16.662110345767186,432.46000000000004,6.549102941176457,16.662110345767186,432.46000000000004,0.12772086249999987,0.08549882014484131,0.33375999999999995,0.12772086249999987,0.08549882014484131,0.33375999999999995,0.12772086249999987,0.08549882014484131,0.33375999999999995,12.157847542654759,0.0005925642284635311,0.0033484571960045173,0.33784488930129997,9.878870201996752e-05,0.00044532669067376407
1,Neck,28,1,No Fall,0.8564036563025235,0.22450762737026836,0.96746,0.8564036563025235,0.22450762737026836,0.96746,0.8564036563025235,0.22450762737026836,0.96746,5.325867647058796,23.835607570110636,271.04,5.325867647058796,23.835607570110636,271.04,5.325867647058796,23.835607570110636,271.04,0.13740203749999977,0.11332227507805609,0.39424,0.13740203749999977,0.11332227507805609,0.39424,0.13740203749999977,0.11332227507805609,0.39424,12.15511665484155,0.0009609335882224414,0.005987684647175584,0.33712636840066906,0.00017801903984412956,0.0006808980560302769
1,Neck,28,2,No Fall,0.897542158823527,0.19653822228083184,1.202188,0.897542158823527,0.19653822228083184,1.202188,0.897542158823527,0.19653822228083184,1.202188,6.542970588235299,27.41375696274278,263.55,6.542970588235299,27.41375696274278,263.55,6.542970588235299,27.41375696274278,263.55,0.12381118749999986,0.17428475954159073,0.5784799999999999,0.12381118749999986,0.17428475954159073,0.5784799999999999,0.12381118749999986,0.17428475954159073,0.5784799999999999,12.158145782673314,0.00048129862205106686,0.0027093488531999554,0.3375228866406441,4.7013867631624165e-05,0.0002880101966858395
1,Neck,28,3,No Fall,0.8889153235294115,0.13065389935447513,1.366156,0.8889153235294115,0.13065389935447513,1.366156,0.8889153235294115,0.13065389935447513,1.366156,5.27182352941177,21.891201724870534,246.89000000000001,5.27182352941177,21.891201724870534,246.89000000000001,5.27182352941177,21.891201724870534,246.89000000000001,0.1360547999999999,0.13476254227421702,0.51016,0.1360547999999999,0.13476254227421702,0.51016,0.1360547999999999,0.13476254227421702,0.51016,12.157246001632702,0.0007107370981095416,0.004450927278094596,0.3380298975319864,5.735405762635747e-05,0.0002436388778686016
1,Neck,28,4,No Fall,0.9167407042016786,0.14067519921284385,0.770796,0.9167407042016786,0.14067519921284385,0.770796,0.9167407042016786,0.14067519921284385,0.770796,5.132926470588224,19.8968974264278,202.79000000000002,5.132926470588224,19.8968974264278,202.79000000000002,5.132926470588224,19.8968974264278,202.79000000000002,0.13561432500000006,0.11263625598645424,0.46802,0.13561432500000006,0.11263625598645424,0.46802,0.13561432500000006,0.11263625598645424,0.46802,12.157099857681446,0.002030083179311984,0.011160825770545557,0.33787255683546036,6.388634057566896e-05,0.00024686588287359257
1,Neck,29,1,No Fall,0.9549657647058819,0.10788671888410628,0.7329760000000001,0.9549657647058819,0.10788671888410628,0.7329760000000001,0.9549657647058819,0.10788671888410628,0.7329760000000001,5.848808823529391,5.079822875941767,42.28,5.848808823529391,5.079822875941767,42.28,5.848808823529391,5.079822875941767,42.28,0.17023370000000018,0.03732107903916908,0.14895999999999998,0.17023370000000018,0.03732107903916908,0.14895999999999998,0.17023370000000018,0.03732107903916908,0.14895999999999998,12.115683376118502,0.0009191324079020228,0.004645490025671606,0.3882111605312348,0.0005089143683675708,0.001776466255188014
1,Neck,29,2,No Fall,0.9628551151260498,0.12533382610191143,0.9635559999999999,0.9628551151260498,0.12533382610191143,0.9635559999999999,0.9628551151260498,0.12533382610191143,0.9635559999999999,6.445367647058839,6.908951588500343,80.22,6.445367647058839,6.908951588500343,80.22,6.445367647058839,6.908951588500343,80.22,0.16528531249999998,0.060792217331516976,0.24079999999999996,0.16528531249999998,0.060792217331516976,0.24079999999999996,0.16528531249999998,0.060792217331516976,0.24079999999999996,12.120193657765142,0.001022960743376577,0.0044159417336899764,0.3638305568584439,0.0002708789858187156,0.0008979141426086468
1,Neck,30,1,No Fall,0.954686036134455,0.14819784492529353,0.8925520000000001,0.954686036134455,0.14819784492529353,0.8925520000000001,0.954686036134455,0.14819784492529353,0.8925520000000001,4.386382352941171,8.23850379366107,67.97,4.386382352941171,8.23850379366107,67.97,4.386382352941171,8.23850379366107,67.97,0.2567785500000003,0.07670771115077836,0.35322,0.2567785500000003,0.07670771115077836,0.35322,0.2567785500000003,0.07670771115077836,0.35322,12.112716628938006,0.00110536202117592,0.0045513425751479986,0.38655720348730105,0.000551538007133357,0.0018668223953247076
1,Neck,30,2,No Fall,0.9522918630252144,0.1772069342053641,1.095072,0.9522918630252144,0.1772069342053641,1.095072,0.9522918630252144,0.1772069342053641,1.095072,5.899073529411763,9.183677934827957,87.15,5.899073529411763,9.183677934827957,87.15,5.899073529411763,9.183677934827957,87.15,0.23788485000000037,0.08388069373053281,0.39899999999999997,0.23788485000000037,0.08388069373053281,0.39899999999999997,0.23788485000000037,0.08388069373053281,0.39899999999999997,12.11590618518485,0.0014702903428163614,0.006154743617495129,0.36280015399160404,0.0002485877829494541,0.0009140491676329354
1,Neck,31,1,No Fall,0.9588424428571442,0.09655907121533105,0.74786,0.9588424428571442,0.09655907121533105,0.74786,0.9588424428571442,0.09655907121533105,0.74786,4.995147058823529,5.452009226073388,36.68000000000001,4.995147058823529,5.452009226073388,36.68000000000001,4.995147058823529,5.452009226073388,36.68000000000001,0.24769832499999966,0.05608857648801723,0.27902,0.24769832499999966,0.05608857648801723,0.27902,0.24769832499999966,0.05608857648801723,0.27902,12.108910469244368,0.0009061519464249455,0.004791675600706924,0.3846055794342042,0.0004914153630435099,0.001688530368805008
1,Neck,31,2,No Fall,0.9602487235294107,0.13810364616919854,1.0431,0.9602487235294107,0.13810364616919854,1.0431,0.9602487235294107,0.13810364616919854,1.0431,4.933632352941183,7.608178544997581,80.78,4.933632352941183,7.608178544997581,80.78,4.933632352941183,7.608178544997581,80.78,0.21849047499999988,0.08742264481552224,0.31849999999999995,0.21849047499999988,0.08742264481552224,0.31849999999999995,0.21849047499999988,0.08742264481552224,0.31849999999999995,12.111130192904165,0.0008823230239390854,0.004133549309941031,0.36183654609460836,0.00019193857067035605,0.0006970330810546765
1,Neck,32,1,No Fall,0.969730891596639,0.10326177431992911,0.9642879999999999,0.969730891596639,0.10326177431992911,0.9642879999999999,0.969730891596639,0.10326177431992911,0.9642879999999999,5.972058823529411,9.667649543919156,94.22,5.972058823529411,9.667649543919156,94.22,5.972058823529411,9.667649543919156,94.22,0.25384677499999947,0.038760050484298154,0.21699999999999994,0.25384677499999947,0.038760050484298154,0.21699999999999994,0.25384677499999947,0.038760050484298154,0.21699999999999994,12.109163206210763,0.0011165991502941816,0.0053358671432395255,0.38293136890010826,0.00044093242356799974,0.0015376678848267877
1,Neck,32,2,No Fall,0.9738620781512614,0.14279086677980898,1.194136,0.9738620781512614,0.14279086677980898,1.194136,0.9738620781512614,0.14279086677980898,1.194136,6.110367647058813,11.47629920054055,125.51000000000002,6.110367647058813,11.47629920054055,125.51000000000002,6.110367647058813,11.47629920054055,125.51000000000002,0.12603849999999972,0.03235843998323843,0.16127999999999998,0.12603849999999972,0.03235843998323843,0.16127999999999998,0.12603849999999972,0.03235843998323843,0.16127999999999998,12.110978512293743,0.0008018872904502043,0.0038337199645557263,0.3613753869106295,0.00021330437211911047,0.0007325301361083558
1,Neck,33,1,No Fall,0.9666976537815107,0.14826115365252704,0.9240280000000001,0.9666976537815107,0.14826115365252704,0.9240280000000001,0.9666976537815107,0.14826115365252704,0.9240280000000001,7.43310294117646,12.36530850046764,111.72,7.43310294117646,12.36530850046764,111.72,7.43310294117646,12.36530850046764,111.72,0.1690224375,0.10007247188701325,0.35769999999999996,0.1690224375,0.10007247188701325,0.35769999999999996,0.1690224375,0.10007247188701325,0.35769999999999996,12.11217476552186,0.0010548945355220672,0.0048817519772157425,0.3814937018666267,0.0004931982367994017,0.0017191869163513118
1,Neck,33,2,No Fall,0.9710444420168055,0.18380633970000224,1.141188,0.9710444420168055,0.18380633970000224,1.141188,0.9710444420168055,0.18380633970000224,1.141188,6.512647058823548,13.465105880403206,135.8,6.512647058823548,13.465105880403206,135.8,6.512647058823548,13.465105880403206,135.8,0.2010320375,0.07081485832046791,0.31779999999999997,0.2010320375,0.07081485832046791,0.31779999999999997,0.2010320375,0.07081485832046791,0.31779999999999997,12.114654389693488,0.0012721414105198992,0.006075197628035767,0.3605801439660072,0.00020017387232086856,0.0007139748573303795
1,Neck,34,1,No Fall,0.9703057268907568,0.1141879837790602,0.9857599999999999,0.9703057268907568,0.1141879837790602,0.9857599999999999,0.9703057268907568,0.1141879837790602,0.9857599999999999,6.458117647058807,10.348720880220785,106.26,6.458117647058807,10.348720880220785,106.26,6.458117647058807,10.348720880220785,106.26,0.18231578749999994,0.09668197965364819,0.41174,0.18231578749999994,0.09668197965364819,0.41174,0.18231578749999994,0.09668197965364819,0.41174,12.115805404646744,0.0007686316502610181,0.005734411887900137,0.37986651282920825,0.0004529856707589637,0.0015723581886291638
1,Neck,34,2,No Fall,0.9726039915966387,0.11835953385621413,0.940864,0.9726039915966387,0.11835953385621413,0.940864,0.9726039915966387,0.11835953385621413,0.940864,6.312411764705852,9.522431231393444,81.41000000000001,6.312411764705852,9.522431231393444,81.41000000000001,6.312411764705852,9.522431231393444,81.41000000000001,0.18160345000000022,0.07059906387825053,0.30379999999999996,0.18160345000000022,0.07059906387825053,0.30379999999999996,0.18160345000000022,0.07059906387825053,0.30379999999999996,12.11952140315717,0.0010205400239512304,0.0044810216877948505,0.3596683456343651,0.00014601307699588895,0.0005405233383178887
1,Neck,35,1,No Fall,0.9429552747899151,0.42357195060841724,2.580788,0.9429552747899151,0.42357195060841724,2.580788,0.9429552747899151,0.42357195060841724,2.580788,4.909455882352939,36.39197172320649,403.9000000000001,4.909455882352939,36.39197172320649,403.9000000000001,4.909455882352939,36.39197172320649,403.9000000000001,0.25647614999999974,0.08212411256654786,0.33361999999999997,0.25647614999999974,0.08212411256654786,0.33361999999999997,0.25647614999999974,0.08212411256654786,0.33361999999999997,12.109681313985629,0.002109762957926127,0.008146210961040623,0.37672161896667467,0.0006655216233003948,0.0022225996971130813
1,Neck,35,2,No Fall,0.9454489445378155,0.5166661926651138,3.2351959999999997,0.9454489445378155,0.5166661926651138,3.2351959999999997,0.9454489445378155,0.5166661926651138,3.2351959999999997,5.0262205882353035,46.0743629337814,472.01000000000005,5.0262205882353035,46.0743629337814,472.01000000000005,5.0262205882353035,46.0743629337814,472.01000000000005,0.25340122499999995,0.08618242605136753,0.36484,0.25340122499999995,0.08618242605136753,0.36484,0.25340122499999995,0.08618242605136753,0.36484,12.113408838692102,0.0022001095296873122,0.008799865432115084,0.3583760914801601,0.0001909272961685979,0.000776094703674346
1,Neck,36,1,No Fall,0.9575966588235285,0.5902537863623588,3.0841600000000002,0.9575966588235285,0.5902537863623588,3.0841600000000002,0.9575966588235285,0.5902537863623588,3.0841600000000002,7.2036617647058705,40.094359528443675,412.86,7.2036617647058705,40.094359528443675,412.86,7.2036617647058705,40.094359528443675,412.86,0.21252988750000001,0.09140002528651907,0.37366,0.21252988750000001,0.09140002528651907,0.37366,0.21252988750000001,0.09140002528651907,0.37366,12.109389777306806,0.002639781727236984,0.009523914877403783,0.3712691785340309,0.0005135206164669294,0.0017974417877197335
1,Neck,36,2,No Fall,0.9709832369747919,0.5787482901233771,3.28668,0.9709832369747919,0.5787482901233771,3.28668,0.9709832369747919,0.5787482901233771,3.28668,7.051764705882352,37.11460289950001,332.22,7.051764705882352,37.11460289950001,332.22,7.051764705882352,37.11460289950001,332.22,0.21257906249999986,0.08532907118833977,0.37044,0.21257906249999986,0.08532907118833977,0.37044,0.21257906249999986,0.08532907118833977,0.37044,12.115949036793635,0.0025692754569141617,0.009848089827901418,0.3569356774586678,0.00020701332622977874,0.0008164322662353451
1,Neck,37,1,No Fall,0.975273023529411,0.026287362591422156,0.18934400000000007,0.975273023529411,0.026287362591422156,0.18934400000000007,0.975273023529411,0.026287362591422156,0.18934400000000007,5.465514705882369,3.355669317183892,28.840000000000003,5.465514705882369,3.355669317183892,28.840000000000003,5.465514705882369,3.355669317183892,28.840000000000003,0.13760424999999984,0.01927370223091697,0.10065999999999999,0.13760424999999984,0.01927370223091697,0.10065999999999999,0.13760424999999984,0.01927370223091697,0.10065999999999999,12.117407580001888,0.004673181236342261,0.015446937191040178,0.3675781584457401,0.0002707426651183229,0.0009592272377015321
1,Neck,37,2,No Fall,0.9696418521008396,0.029802391143865636,0.32476400000000005,0.9696418521008396,0.029802391143865636,0.32476400000000005,0.9696418521008396,0.029802391143865636,0.32476400000000005,5.1153823529411655,3.8093143359465533,35.63,5.1153823529411655,3.8093143359465533,35.63,5.1153823529411655,3.8093143359465533,35.63,0.15562163750000005,0.01207978943894096,0.07588,0.15562163750000005,0.01207978943894096,0.07588,0.15562163750000005,0.01207978943894096,0.07588,12.121338016224218,0.0046751188659104135,0.015671454568090937,0.3561165385419846,3.934940430411357e-05,0.0001597367477417233
1,Neck,38,1,No Fall,0.9658950680672291,0.04710511399223505,0.728828,0.9658950680672291,0.04710511399223505,0.728828,0.9658950680672291,0.04710511399223505,0.728828,6.003367647058798,6.46222625486548,64.61,6.003367647058798,6.46222625486548,64.61,6.003367647058798,6.46222625486548,64.61,0.12014677500000003,0.03846043462109993,0.24023999999999998,0.12014677500000003,0.03846043462109993,0.24023999999999998,0.12014677500000003,0.03846043462109993,0.24023999999999998,12.109216775923855,0.004123559240218549,0.014500294982806139,0.3670239324374197,0.0003193358483982936,0.0011108964729309445
1,Neck,38,2,No Fall,0.9617474781512617,0.0448617398222181,0.8283799999999999,0.9617474781512617,0.0448617398222181,0.8283799999999999,0.9617474781512617,0.0448617398222181,0.8283799999999999,6.921632352941159,8.56785213647689,127.75000000000001,6.921632352941159,8.56785213647689,127.75000000000001,6.921632352941159,8.56785213647689,127.75000000000001,0.1294523999999998,0.025488445956713495,0.13663999999999998,0.1294523999999998,0.025488445956713495,0.13663999999999998,0.1294523999999998,0.025488445956713495,0.13663999999999998,12.097590280931678,0.0035530926524390276,0.013034259786000035,0.35593010236158357,3.7972694444720636e-05,0.0002073350715637301
1,Neck,39,1,No Fall,0.9607092478991566,0.0397139818575844,0.4594520000000001,0.9607092478991566,0.0397139818575844,0.4594520000000001,0.9607092478991566,0.0397139818575844,0.4594520000000001,5.17066176470588,6.087441732026352,83.09,5.17066176470588,6.087441732026352,83.09,5.17066176470588,6.087441732026352,83.09,0.14276438749999992,0.019983863146079726,0.11801999999999999,0.14276438749999992,0.019983863146079726,0.11801999999999999,0.14276438749999992,0.019983863146079726,0.11801999999999999,12.107684687806055,0.002925178997092776,0.011988938781398062,0.3652297136209489,0.00021149994125231443,0.0007559259223938741
1,Neck,39,2,No Fall,0.9654725277310899,0.04718859886845993,0.8283799999999999,0.9654725277310899,0.04718859886845993,0.8283799999999999,0.9654725277310899,0.04718859886845993,0.8283799999999999,5.913573529411772,7.896241720484186,127.75000000000001,5.913573529411772,7.896241720484186,127.75000000000001,5.913573529411772,7.896241720484186,127.75000000000001,0.1346816625000001,0.026306332972454202,0.14251999999999998,0.1346816625000001,0.026306332972454202,0.14251999999999998,0.1346816625000001,0.026306332972454202,0.14251999999999998,12.097780396457392,0.0037902282221365198,0.013423498413526858,0.35590608134307855,2.4609045196726696e-05,0.00014844223022458802
1,Neck,40,1,No Fall,0.9759524302520993,0.06669522083686048,0.976488,0.9759524302520993,0.06669522083686048,0.976488,0.9759524302520993,0.06669522083686048,0.976488,5.528044117647048,6.229661707902056,91.35000000000001,5.528044117647048,6.229661707902056,91.35000000000001,5.528044117647048,6.229661707902056,91.35000000000001,0.14281242500000016,0.024599168004954153,0.11801999999999997,0.14281242500000016,0.024599168004954153,0.11801999999999997,0.14281242500000016,0.024599168004954153,0.11801999999999997,12.11737904784726,0.004476937971871514,0.01527108999868787,0.36470020647096635,0.0002462054044376387,0.0008535428237914644
1,Neck,40,2,No Fall,0.9721888840336143,0.041805978574972404,0.5953599999999999,0.9721888840336143,0.041805978574972404,0.5953599999999999,0.9721888840336143,0.041805978574972404,0.5953599999999999,6.187088235294116,7.302115235877716,100.66,6.187088235294116,7.302115235877716,100.66,6.187088235294116,7.302115235877716,100.66,0.11459875000000026,0.05389089203279213,0.22469999999999998,0.11459875000000026,0.05389089203279213,0.22469999999999998,0.11459875000000026,0.05389089203279213,0.22469999999999998,12.111798130332595,0.004718706681751279,0.01547759934627635,0.355978963251114,4.2687807923533135e-05,0.00018958654403689046
1,Neck,43,1,No Fall,0.9673178546218486,0.6828939637434452,4.501556,0.9673178546218486,0.6828939637434452,4.501556,0.9673178546218486,0.6828939637434452,4.501556,5.986735294117641,26.808822259249435,289.87,5.986735294117641,26.808822259249435,289.87,5.986735294117641,26.808822259249435,289.87,0.16000739999999994,0.036557901736178657,0.27355999999999997,0.16000739999999994,0.036557901736178657,0.27355999999999997,0.16000739999999994,0.036557901736178657,0.27355999999999997,12.298936569184848,0.004161130054143538,0.01739968719069651,0.3170806247534751,0.00016592634567349807,0.0005647258758544327
1,Neck,43,2,No Fall,0.9626357714285708,0.6734739051875592,4.635512,0.9626357714285708,0.6734739051875592,4.635512,0.9626357714285708,0.6734739051875592,4.635512,5.944397058823551,29.42502473011077,511.3500000000001,5.944397058823551,29.42502473011077,511.3500000000001,5.944397058823551,29.42502473011077,511.3500000000001,0.1297715999999996,0.05336951905739604,0.29918,0.1297715999999996,0.05336951905739604,0.29918,0.1297715999999996,0.05336951905739604,0.29918,12.298681469669685,0.0011589834952148868,0.005466088311612438,0.3161886523338317,0.00011667994765400023,0.0005009925270080262
1,Neck,43,3,No Fall,0.9626883647058811,0.6768732156101619,4.598668,0.9626883647058811,0.6768732156101619,4.598668,0.9626883647058811,0.6768732156101619,4.598668,4.567691176470593,28.6434655762846,420.77000000000004,4.567691176470593,28.6434655762846,420.77000000000004,4.567691176470593,28.6434655762846,420.77000000000004,0.13001283749999987,0.0922187776556043,0.34635999999999995,0.13001283749999987,0.0922187776556043,0.34635999999999995,0.13001283749999987,0.0922187776556043,0.34635999999999995,12.291051866723329,0.007031831256311835,0.027206982512701927,0.3230486518432617,9.09373757681228e-05,0.0003598110580443348
1,Neck,44,1,No Fall,0.9689731588235294,0.6123968580100737,4.305136,0.9689731588235294,0.6123968580100737,4.305136,0.9689731588235294,0.6123968580100737,4.305136,5.068794117647038,23.00612510179996,250.74000000000004,5.068794117647038,23.00612510179996,250.74000000000004,5.068794117647038,23.00612510179996,250.74000000000004,0.22435350000000018,0.08545894324242823,0.294,0.22435350000000018,0.08545894324242823,0.294,0.22435350000000018,0.08545894324242823,0.294,12.2980642431832,0.0023687412915516398,0.014898592959873724,0.31661335039501176,0.00012502023936709043,0.0005356828308105133
1,Neck,101,1,Fall,0.6878391268907551,0.28731228802801745,3.832264,0.6878391268907551,0.28731228802801745,3.832264,0.6878391268907551,0.28731228802801745,3.832264,9.653279411764744,24.525006509617477,464.73,9.653279411764744,24.525006509617477,464.73,9.653279411764744,24.525006509617477,464.73,0.3164004375000002,0.16340529857936345,0.49041999999999997,0.3164004375000002,0.16340529857936345,0.49041999999999997,0.3164004375000002,0.16340529857936345,0.49041999999999997,12.25772956677841,0.0009526143779188586,0.006215578602745353,0.35059051432771715,4.61506447797722e-05,0.00021620933532717768
1,Neck,101,2,Fall,0.4089523042016777,0.581490881771231,5.502199999999999,0.4089523042016777,0.581490881771231,5.502199999999999,0.4089523042016777,0.581490881771231,5.502199999999999,9.960441176470267,34.02130057058194,475.09000000000003,9.960441176470267,34.02130057058194,475.09000000000003,9.960441176470267,34.02130057058194,475.09000000000003,-0.02805241249999996,0.19014928836863076,0.7512399999999999,-0.02805241249999996,0.19014928836863076,0.7512399999999999,-0.02805241249999996,0.19014928836863076,0.7512399999999999,12.258560721865358,0.0011600956186100697,0.01138087332018145,0.3569768217724802,0.00015147908737588885,0.0005340693283081288
1,Neck,101,3,Fall,0.6682910873949549,0.321718592929131,4.393464,0.6682910873949549,0.321718592929131,4.393464,0.6682910873949549,0.321718592929131,4.393464,8.98097058823562,29.426499733321,440.58000000000004,8.98097058823562,29.426499733321,440.58000000000004,8.98097058823562,29.426499733321,440.58000000000004,0.3982042749999998,0.15576808764612216,0.37842,0.3982042749999998,0.15576808764612216,0.37842,0.3982042749999998,0.15576808764612216,0.37842,12.089288628588923,0.0014552354492443876,0.018839124732826562,0.2828736899969101,0.00041615816646529285,0.0014102011871337528
1,Neck,102,2,Fall,0.7163153109243693,0.41618434138127586,5.35458,0.7163153109243693,0.41618434138127586,5.35458,0.7163153109243693,0.41618434138127586,5.35458,5.841764705882341,40.57470145790461,445.9000000000001,5.841764705882341,40.57470145790461,445.9000000000001,5.841764705882341,40.57470145790461,445.9000000000001,0.2757587875,0.15877205145579618,0.51478,0.2757587875,0.15877205145579618,0.51478,0.2757587875,0.15877205145579618,0.51478,12.258080976218324,0.0012490123687492252,0.013939175004493265,0.3575343635284423,0.00010846626174337022,0.0004961520195007063
1,Neck,102,3,Fall,0.7550536428571427,0.39328156953697696,9.729011999999999,0.7550536428571427,0.39328156953697696,9.729011999999999,0.7550536428571427,0.39328156953697696,9.729011999999999,6.253426470588202,36.15670027922628,710.8500000000001,6.253426470588202,36.15670027922628,710.8500000000001,6.253426470588202,36.15670027922628,710.8500000000001,0.3318949375000001,0.1323338331294771,0.399,0.3318949375000001,0.1323338331294771,0.399,0.3318949375000001,0.1323338331294771,0.399,12.088619355540816,0.001633941537264982,0.023079056461032366,0.2914970621887208,0.0004123632321453676,0.0014198822021483926
1,Neck,103,1,Fall,0.5904780008403341,0.4084562497510718,8.794492,0.5904780008403341,0.4084562497510718,8.794492,0.5904780008403341,0.4084562497510718,8.794492,11.455764705882485,33.70855803455807,676.5500000000001,11.455764705882485,33.70855803455807,676.5500000000001,11.455764705882485,33.70855803455807,676.5500000000001,0.36471811250000014,0.19214797377432408,0.5404,0.36471811250000014,0.19214797377432408,0.5404,0.36471811250000014,0.19214797377432408,0.5404,12.257610432776493,0.0012024737030459675,0.015081865662851968,0.35176046499223723,9.140657852331438e-05,0.0003694920730591411
1,Neck,103,2,Fall,0.41006383697479154,0.5262430470386007,2.5212519999999996,0.41006383697479154,0.5262430470386007,2.5212519999999996,0.41006383697479154,0.5262430470386007,2.5212519999999996,10.156970588235403,31.61904394923903,547.2600000000001,10.156970588235403,31.61904394923903,547.2600000000001,10.156970588235403,31.61904394923903,547.2600000000001,0.3405504374999998,0.17090367537949558,0.4438,0.3405504374999998,0.17090367537949558,0.4438,0.3405504374999998,0.17090367537949558,0.4438,12.258924765993196,0.0011704066497737588,0.012047655228611731,0.35840099992504126,5.42593637293428e-05,0.0002266971015930097
1,Neck,104,1,Fall,0.6129389184873947,0.440536209356526,3.3484119999999997,0.6129389184873947,0.440536209356526,3.3484119999999997,0.6129389184873947,0.440536209356526,3.3484119999999997,6.164779411764695,44.890426753529354,850.1500000000001,6.164779411764695,44.890426753529354,850.1500000000001,6.164779411764695,44.890426753529354,850.1500000000001,0.33663568750000006,0.18643010288762793,0.5079199999999999,0.33663568750000006,0.18643010288762793,0.5079199999999999,0.33663568750000006,0.18643010288762793,0.5079199999999999,12.2586366134409,0.0014590328714591118,0.018623924302211492,0.3581199560254099,0.0003773706760998175,0.0013327530670166343
1,Neck,104,2,Fall,0.7739856336134479,0.30652555068263476,2.8020959999999997,0.7739856336134479,0.30652555068263476,2.8020959999999997,0.7739856336134479,0.30652555068263476,2.8020959999999997,4.870676470588245,41.17527131795408,686.84,4.870676470588245,41.17527131795408,686.84,4.870676470588245,41.17527131795408,686.84,0.29556047500000004,0.16988035911202887,0.48677999999999993,0.29556047500000004,0.16988035911202887,0.48677999999999993,0.29556047500000004,0.16988035911202887,0.48677999999999993,12.258748312317016,0.0010082859984707857,0.00588549105235181,0.35734619686660773,0.0004564420455281627,0.001412621440887496
1,Neck,105,1,Fall,0.4117491798319335,0.5328537662888645,2.654476,0.4117491798319335,0.5328537662888645,2.654476,0.4117491798319335,0.5328537662888645,2.654476,7.738676470587968,32.483143080364435,551.74,7.738676470587968,32.483143080364435,551.74,7.738676470587968,32.483143080364435,551.74,0.18017142500000002,0.10018855965202604,0.5325599999999999,0.18017142500000002,0.10018855965202604,0.5325599999999999,0.18017142500000002,0.10018855965202604,0.5325599999999999,12.258699966222217,0.0011375252241134378,0.008053499882183957,0.3582368905855177,6.66615987248317e-05,0.0002912372016906084
1,Neck,105,2,Fall,0.5367345403361323,0.41381639552343236,2.210152,0.5367345403361323,0.41381639552343236,2.210152,0.5367345403361323,0.41381639552343236,2.210152,8.056014705882262,33.1999894901053,478.80000000000007,8.056014705882262,33.1999894901053,478.80000000000007,8.056014705882262,33.1999894901053,478.80000000000007,0.03117423749999992,0.17264645863684394,0.64554,0.03117423749999992,0.17264645863684394,0.64554,0.03117423749999992,0.17264645863684394,0.64554,12.258544887051519,0.0008987983492094137,0.00706697323591321,0.35678880032587074,0.00015722408572125147,0.0005413300895690254
1,Neck,105,3,Fall,0.470504072268907,0.4218547388127275,2.264808,0.470504072268907,0.4218547388127275,2.264808,0.470504072268907,0.4218547388127275,2.264808,7.080544117646973,32.0690235678815,704.34,7.080544117646973,32.0690235678815,704.34,7.080544117646973,32.0690235678815,704.34,0.33737383750000016,0.1570793230149907,0.48482,0.33737383750000016,0.1570793230149907,0.48482,0.33737383750000016,0.1570793230149907,0.48482,12.307622396157456,0.0016417222294437333,0.01762071646378871,0.3427517763015749,0.00016363440910234514,0.0005251950645446257
1,Neck,105,4,Fall,0.3679783991596621,0.5485408249125239,4.001112,0.3679783991596621,0.5485408249125239,4.001112,0.3679783991596621,0.5485408249125239,4.001112,8.233926470588434,26.356339182655898,631.19,8.233926470588434,26.356339182655898,631.19,8.233926470588434,26.356339182655898,631.19,0.3598097125000001,0.10464444950127305,0.32087999999999994,0.3598097125000001,0.10464444950127305,0.32087999999999994,0.3598097125000001,0.10464444950127305,0.32087999999999994,12.088917474238938,0.0013316797681671227,0.010753739909063142,0.30297166675386417,0.0002825271671640426,0.0009374449539184537
1,Neck,106,1,Fall,0.8190269571428559,0.2801356513582651,2.193072,0.8190269571428559,0.2801356513582651,2.193072,0.8190269571428559,0.2801356513582651,2.193072,5.771058823529388,39.55063810276253,584.71,5.771058823529388,39.55063810276253,584.71,5.771058823529388,39.55063810276253,584.71,0.22049553749999976,0.11139509140365703,0.5145,0.22049553749999976,0.11139509140365703,0.5145,0.22049553749999976,0.11139509140365703,0.5145,12.30687683293295,0.0008316086749711593,0.006064139983692485,0.34339048530092237,0.00017206194173928683,0.000709134349823004
1,Neck,106,3,Fall,0.7252671890756327,0.37171234250767526,3.237392,0.7252671890756327,0.37171234250767526,3.237392,0.7252671890756327,0.37171234250767526,3.237392,3.625970588235294,37.74952671327483,509.88000000000005,3.625970588235294,37.74952671327483,509.88000000000005,3.625970588235294,37.74952671327483,509.88000000000005,0.23038277499999996,0.16201127292304596,0.6706,0.23038277499999996,0.16201127292304596,0.6706,0.23038277499999996,0.16201127292304596,0.6706,12.088449892518488,0.0012361323723715574,0.014530706830955253,0.30795307740097055,0.00023563132066453118,0.0008446685600281278
1,Neck,107,1,Fall,0.43198041932773096,0.5869905154669879,7.3622119999999995,0.43198041932773096,0.5869905154669879,7.3622119999999995,0.43198041932773096,0.5869905154669879,7.3622119999999995,2.1294264705882355,38.524395710688665,647.5000000000001,2.1294264705882355,38.524395710688665,647.5000000000001,2.1294264705882355,38.524395710688665,647.5000000000001,0.018058075000000184,0.18276240689116627,0.6071799999999999,0.018058075000000184,0.18276240689116627,0.6071799999999999,0.018058075000000184,0.18276240689116627,0.6071799999999999,12.25808266878016,0.0014865723181137576,0.016328886494616057,0.3523472958523748,6.814877851722943e-05,0.00027026166915888883
1,Neck,107,2,Fall,0.4047894386554627,0.5881834196960863,6.933015999999999,0.4047894386554627,0.5881834196960863,6.933015999999999,0.4047894386554627,0.5881834196960863,6.933015999999999,-0.019720588235290056,32.4981506698325,627.76,-0.019720588235290056,32.4981506698325,627.76,-0.019720588235290056,32.4981506698325,627.76,-0.00966656249999991,0.17159526290107754,0.5486599999999999,-0.00966656249999991,0.17159526290107754,0.5486599999999999,-0.00966656249999991,0.17159526290107754,0.5486599999999999,12.25770546353862,0.0019437722464048788,0.02654423315677157,0.3535732915263176,6.577780660135308e-05,0.0002767156791686487
1,Neck,107,3,Fall,0.4082363487394952,0.5764601555495413,5.954331999999999,0.4082363487394952,0.5764601555495413,5.954331999999999,0.4082363487394952,0.5764601555495413,5.954331999999999,0.78120588235294,46.550410069039884,696.4300000000001,0.78120588235294,46.550410069039884,696.4300000000001,0.78120588235294,46.550410069039884,696.4300000000001,-0.01393831249999989,0.17619939661504802,0.56602,-0.01393831249999989,0.17619939661504802,0.56602,-0.01393831249999989,0.17619939661504802,0.56602,12.259061188756649,0.0013163347439001747,0.012938620559243219,0.3590855969355585,0.00012188539425118465,0.0004074093818664526
1,Neck,107,4,Fall,0.38388976218487403,0.6045482278523584,7.293647999999999,0.38388976218487403,0.6045482278523584,7.293647999999999,0.38388976218487403,0.6045482278523584,7.293647999999999,0.521044117647065,37.18334575839502,682.6400000000001,0.521044117647065,37.18334575839502,682.6400000000001,0.521044117647065,37.18334575839502,682.6400000000001,-0.012336974999999972,0.17992084865354538,0.5416599999999999,-0.012336974999999972,0.17992084865354538,0.5416599999999999,-0.012336974999999972,0.17992084865354538,0.5416599999999999,12.258400673202573,0.001353351097149492,0.016337705723914908,0.35892109228792174,5.3219450885758864e-05,0.00022104984283438656
1,Neck,107,5,Fall,0.4406748159663852,0.6070159543194646,8.731784,0.4406748159663852,0.6070159543194646,8.731784,0.4406748159663852,0.6070159543194646,8.731784,1.6534264705882267,31.452983882741837,834.7500000000001,1.6534264705882267,31.452983882741837,834.7500000000001,1.6534264705882267,31.452983882741837,834.7500000000001,0.03509021249999999,0.2381344529924611,0.56952,0.03509021249999999,0.2381344529924611,0.56952,0.03509021249999999,0.2381344529924611,0.56952,12.088201995536267,0.0024705933650376113,0.032440553825772156,0.32055416083946225,0.0002599137875587452,0.0007817419624329136
1,Neck,107,6,Fall,0.4098152747899161,0.5541492714117837,5.266984,0.4098152747899161,0.5541492714117837,5.266984,0.4098152747899161,0.5541492714117837,5.266984,1.2972941176470556,34.20208560526071,638.4000000000001,1.2972941176470556,34.20208560526071,638.4000000000001,1.2972941176470556,34.20208560526071,638.4000000000001,0.016126512500000124,0.24309505130157769,0.58044,0.016126512500000124,0.24309505130157769,0.58044,0.016126512500000124,0.24309505130157769,0.58044,12.088819001379163,0.0015363000840091434,0.01644565054382241,0.3152786732262611,0.00040828778677292314,0.0011915715980529429
1,Neck,108,1,Fall,0.6053451873949554,0.5628649373009867,8.188396000000001,0.6053451873949554,0.5628649373009867,8.188396000000001,0.6053451873949554,0.5628649373009867,8.188396000000001,7.180882352941191,64.5707753862109,1044.68,7.180882352941191,64.5707753862109,1044.68,7.180882352941191,64.5707753862109,1044.68,0.1794158625000002,0.21223758521994532,0.7947799999999999,0.1794158625000002,0.21223758521994532,0.7947799999999999,0.1794158625000002,0.21223758521994532,0.7947799999999999,12.259443078537489,0.0014119503577677103,0.012358107990731781,0.35866930925617224,9.314503934237826e-05,0.0003477097892761183
1,Neck,108,2,Fall,0.6076986596638644,0.5262833258251834,4.825832,0.6076986596638644,0.5262833258251834,4.825832,0.6076986596638644,0.5262833258251834,4.825832,3.634867647058832,51.804390734503414,656.5300000000001,3.634867647058832,51.804390734503414,656.5300000000001,3.634867647058832,51.804390734503414,656.5300000000001,0.17015442499999964,0.1969133798524047,0.7645399999999999,0.17015442499999964,0.1969133798524047,0.7645399999999999,0.17015442499999964,0.1969133798524047,0.7645399999999999,12.258921800255656,0.0011082886501473043,0.010137311924351522,0.35907880812377924,0.00010362274836032445,0.0004267714118956767
1,Neck,108,3,Fall,0.799475483193276,0.4066361767371941,6.861768,0.799475483193276,0.4066361767371941,6.861768,0.799475483193276,0.4066361767371941,6.861768,4.611235294117645,56.87840104383112,952.98,4.611235294117645,56.87840104383112,952.98,4.611235294117645,56.87840104383112,952.98,0.13511837499999982,0.13912680797673566,0.6475,0.13511837499999982,0.13912680797673566,0.6475,0.13511837499999982,0.13912680797673566,0.6475,12.258892248861535,0.0017236622332238965,0.024805870628952675,0.3575044249895095,7.453166965525842e-05,0.0003186667442321989
1,Neck,108,4,Fall,0.8309083218487396,0.4325633567342107,10.148692,0.8309083218487396,0.4325633567342107,10.148692,0.8309083218487396,0.4325633567342107,10.148692,4.685117647058836,49.908365377743294,869.3300000000002,4.685117647058836,49.908365377743294,869.3300000000002,4.685117647058836,49.908365377743294,869.3300000000002,0.13959854999999982,0.12627795865341485,0.7015399999999999,0.13959854999999982,0.12627795865341485,0.7015399999999999,0.13959854999999982,0.12627795865341485,0.7015399999999999,12.258629553729856,0.001774020276266896,0.02484106167977984,0.35717511316251743,0.00010066046310145421,0.0003428692817687984
1,Neck,108,5,Fall,0.6889186218487361,0.48505094578676095,6.44892,0.6889186218487361,0.48505094578676095,6.44892,0.6889186218487361,0.48505094578676095,6.44892,5.165632352941161,38.22819617384194,588.7700000000001,5.165632352941161,38.22819617384194,588.7700000000001,5.165632352941161,38.22819617384194,588.7700000000001,0.280974575,0.15254467456832546,0.61054,0.280974575,0.15254467456832546,0.61054,0.280974575,0.15254467456832546,0.61054,12.0867298224935,0.0015065428224343778,0.015249562837080788,0.3235583330812456,0.0004551339721689301,0.0013359800720213477
1,Neck,109,1,Fall,0.6097092504201671,0.4326156574839292,8.28014,0.6097092504201671,0.4326156574839292,8.28014,0.6097092504201671,0.4326156574839292,8.28014,1.5196911764705923,50.00065343730674,1225.91,1.5196911764705923,50.00065343730674,1225.91,1.5196911764705923,50.00065343730674,1225.91,0.03006456250000008,0.17577912409961194,0.58478,0.03006456250000008,0.17577912409961194,0.58478,0.03006456250000008,0.17577912409961194,0.58478,12.258355167338905,0.0015655365076850183,0.017956569180753945,0.3579412283532141,2.4858600116629162e-05,0.00015731649398814662
1,Neck,109,2,Fall,0.48534711512604806,0.4967980751708337,4.671136,0.48534711512604806,0.4967980751708337,4.671136,0.48534711512604806,0.4967980751708337,4.671136,4.023779411764677,29.983043235077847,541.73,4.023779411764677,29.983043235077847,541.73,4.023779411764677,29.983043235077847,541.73,0.13864733750000022,0.06170644581662984,0.33096,0.13864733750000022,0.06170644581662984,0.33096,0.13864733750000022,0.06170644581662984,0.33096,12.258386200160553,0.001405736436631166,0.011039005331795693,0.35609482079830185,7.308418898253687e-05,0.0002767156791686487
1,Neck,109,3,Fall,0.4783771218487415,0.4994294691736573,8.950164000000001,0.4783771218487415,0.4994294691736573,8.950164000000001,0.4783771218487415,0.4994294691736573,8.950164000000001,2.5963823529411783,33.32627591337294,702.1000000000001,2.5963823529411783,33.32627591337294,702.1000000000001,2.5963823529411783,33.32627591337294,702.1000000000001,0.22265416250000022,0.062359677296462294,0.34873999999999994,0.22265416250000022,0.062359677296462294,0.34873999999999994,0.22265416250000022,0.062359677296462294,0.34873999999999994,12.086880964403601,0.0009792002349495444,0.008079741051275846,0.3317423122378348,0.00030438911155055597,0.000926150436401374
1,Neck,110,1,Fall,0.8294536512604996,0.30480456816361146,4.4122520000000005,0.8294536512604996,0.30480456816361146,4.4122520000000005,0.8294536512604996,0.30480456816361146,4.4122520000000005,4.7742794117647085,39.81063192296212,583.59,4.7742794117647085,39.81063192296212,583.59,4.7742794117647085,39.81063192296212,583.59,0.1272726875000001,0.13105886462015667,0.6729799999999999,0.1272726875000001,0.13105886462015667,0.6729799999999999,0.1272726875000001,0.13105886462015667,0.6729799999999999,12.307417278304312,0.0012855892684958154,0.015489062691001365,0.3436544946478843,0.000132930299743373,0.00047517648696904224
1,Neck,110,2,Fall,0.8367040907563033,0.32535032628850824,4.96784,0.8367040907563033,0.32535032628850824,4.96784,0.8367040907563033,0.32535032628850824,4.96784,4.97710294117647,33.68157747212289,461.58000000000004,4.97710294117647,33.68157747212289,461.58000000000004,4.97710294117647,33.68157747212289,461.58000000000004,0.22945055000000017,0.09929018905069911,0.47502,0.22945055000000017,0.09929018905069911,0.47502,0.22945055000000017,0.09929018905069911,0.47502,12.306850985856943,0.0009195227761913935,0.007366443661535271,0.34489184937944406,0.0001576931875601988,0.0004606549644469715
1,Neck,111,1,Fall,0.5285613092437002,0.42064050745363374,2.303848,0.5285613092437002,0.42064050745363374,2.303848,0.5285613092437002,0.42064050745363374,2.303848,10.01150000000003,25.803495917682596,556.08,10.01150000000003,25.803495917682596,556.08,10.01150000000003,25.803495917682596,556.08,0.3630464249999996,0.17109165315798444,0.44548,0.3630464249999996,0.17109165315798444,0.44548,0.3630464249999996,0.17109165315798444,0.44548,12.306188355757783,0.0010154294935361954,0.007005640238025634,0.34661200439729684,0.00014127128636329513,0.0004187038993835879
1,Neck,112,1,Fall,0.3545372798319324,0.6312974731328507,7.419308,0.3545372798319324,0.6312974731328507,7.419308,0.3545372798319324,0.6312974731328507,7.419308,0.48483823529411235,55.335161876307474,1322.3700000000001,0.48483823529411235,55.335161876307474,1322.3700000000001,0.48483823529411235,55.335161876307474,1322.3700000000001,-0.020899724999999893,0.17373689076281917,0.5304599999999999,-0.020899724999999893,0.17373689076281917,0.5304599999999999,-0.020899724999999893,0.17373689076281917,0.5304599999999999,12.306494534889739,0.0012050514687294597,0.00932538191293375,0.3469183076786043,0.00010400968514128138,0.0003227005004882155
1,Neck,113,1,Fall,0.47415843361344323,0.4833584083981805,3.3789119999999997,0.47415843361344323,0.4833584083981805,3.3789119999999997,0.47415843361344323,0.4833584083981805,3.3789119999999997,9.66798529411718,22.361581256264525,453.6700000000001,9.66798529411718,22.361581256264525,453.6700000000001,9.66798529411718,22.361581256264525,453.6700000000001,0.30444426250000034,0.13328339929605296,0.46074,0.30444426250000034,0.13328339929605296,0.46074,0.30444426250000034,0.13328339929605296,0.46074,12.306518397040568,0.001017712779774732,0.007729726189449337,0.3476486757213592,0.00010723829834608418,0.000360617809295638
1,Neck,113,2,Fall,0.49771565966386844,0.4621176356097748,4.171912,0.49771565966386844,0.4621176356097748,4.171912,0.49771565966386844,0.4621176356097748,4.171912,6.853382352941131,31.530232523812366,836.5000000000001,6.853382352941131,31.530232523812366,836.5000000000001,6.853382352941131,31.530232523812366,836.5000000000001,0.07106085000000002,0.05163546881555712,0.39186,0.07106085000000002,0.05163546881555712,0.39186,0.07106085000000002,0.05163546881555712,0.39186,12.305724280651281,0.0009601483894424762,0.005146527556966873,0.3479517358626368,0.0002370788131219825,0.0006889655685425877
1,Neck,113,3,Fall,0.47415940756302444,0.48591136013716,4.671136000000001,0.47415940756302444,0.48591136013716,4.671136000000001,0.47415940756302444,0.48591136013716,4.671136000000001,5.85964705882349,36.46307393733665,913.9900000000001,5.85964705882349,36.46307393733665,913.9900000000001,5.85964705882349,36.46307393733665,913.9900000000001,0.10954256249999998,0.15238288452404525,0.42504,0.10954256249999998,0.15238288452404525,0.42504,0.10954256249999998,0.15238288452404525,0.42504,12.088162314244896,0.0013234945329458354,0.01331022844930807,0.3500495674449919,0.0003227801437652751,0.0009616474914551087
1,Neck,114,2,Fall,0.444820252941178,0.48973693712494737,2.65838,0.444820252941178,0.48973693712494737,2.65838,0.444820252941178,0.48973693712494737,2.65838,9.81852941176458,39.24575259254421,1017.73,9.81852941176458,39.24575259254421,1017.73,9.81852941176458,39.24575259254421,1017.73,0.27458882500000037,0.12693909031510228,0.6803999999999999,0.27458882500000037,0.12693909031510228,0.6803999999999999,0.27458882500000037,0.12693909031510228,0.6803999999999999,12.305577881220822,0.0014790811420730525,0.0178647174395401,0.348085620266533,0.00030521409350438744,0.0007962634849548178
1,Neck,115,1,Fall,0.4540084420168069,0.45276214909113416,3.8456840000000003,0.4540084420168069,0.45276214909113416,3.8456840000000003,0.4540084420168069,0.45276214909113416,3.8456840000000003,10.572073529411513,29.38724782665819,429.38,10.572073529411513,29.38724782665819,429.38,10.572073529411513,29.38724782665819,429.38,-0.03393398750000017,0.19521905335377757,0.5828199999999999,-0.03393398750000017,0.19521905335377757,0.5828199999999999,-0.03393398750000017,0.19521905335377757,0.5828199999999999,12.303543100293926,0.0009590816329646436,0.005349483077365491,0.3515438724500657,0.00017644644815080192,0.0006010296821594152
1,Neck,115,2,Fall,0.6011681739495804,0.33450061591198693,3.862764,0.6011681739495804,0.33450061591198693,3.862764,0.6011681739495804,0.33450061591198693,3.862764,9.356323529411583,34.769445825759306,1070.23,9.356323529411583,34.769445825759306,1070.23,9.356323529411583,34.769445825759306,1070.23,0.42574489999999926,0.13356413749489573,0.33977999999999997,0.42574489999999926,0.13356413749489573,0.33977999999999997,0.42574489999999926,0.13356413749489573,0.33977999999999997,12.085374422866142,0.001103451599726607,0.010421712456960108,0.3384837838534356,0.00010871567008841629,0.0003533570480346304
1,Neck,116,1,Fall,0.6906624016806737,0.40553114383510075,4.903668,0.6906624016806737,0.40553114383510075,4.903668,0.6906624016806737,0.40553114383510075,4.903668,11.925735294117635,49.49265559126548,590.94,11.925735294117635,49.49265559126548,590.94,11.925735294117635,49.49265559126548,590.94,0.22026077499999985,0.17850757319496094,0.8299199999999999,0.22026077499999985,0.17850757319496094,0.8299199999999999,0.22026077499999985,0.17850757319496094,0.8299199999999999,12.302879550656316,0.0009689101736180842,0.00824085407876396,0.3573476812889098,0.00022190346635737068,0.0008277267837524804
1,Neck,116,2,Fall,0.6894566008403359,0.3889307042311056,3.1375960000000003,0.6894566008403359,0.3889307042311056,3.1375960000000003,0.6894566008403359,0.3889307042311056,3.1375960000000003,3.19374999999999,32.15699133392352,429.24000000000007,3.19374999999999,32.15699133392352,429.24000000000007,3.19374999999999,32.15699133392352,429.24000000000007,0.3141808250000002,0.15676101292190606,0.57484,0.3141808250000002,0.15676101292190606,0.57484,0.3141808250000002,0.15676101292190606,0.57484,12.084606826663416,0.0009105486148020652,0.006643421925755177,0.34264056564159373,0.0002060222441004609,0.0006841250610349903
1,Neck,117,1,Fall,0.3635832722689082,0.583683520103542,6.6895039999999995,0.3635832722689082,0.583683520103542,6.6895039999999995,0.3635832722689082,0.583683520103542,6.6895039999999995,1.902735294117653,39.926324949758445,569.6600000000001,1.902735294117653,39.926324949758445,569.6600000000001,1.902735294117653,39.926324949758445,569.6600000000001,0.0037782500000000958,0.2034609361419836,0.6159999999999999,0.0037782500000000958,0.2034609361419836,0.6159999999999999,0.0037782500000000958,0.2034609361419836,0.6159999999999999,12.303672855240448,0.0010830169344454854,0.007158597551255141,0.35262241013031004,0.0001129210615644193,0.000524388313293489
1,Neck,117,2,Fall,0.34412996218487285,0.6329419337618913,9.519904,0.34412996218487285,0.6329419337618913,9.519904,0.34412996218487285,0.6329419337618913,9.519904,1.6035294117646988,39.337024007485105,722.61,1.6035294117646988,39.337024007485105,722.61,1.6035294117646988,39.337024007485105,722.61,0.03546987500000005,0.2791892053692821,0.7672,0.03546987500000005,0.2791892053692821,0.7672,0.03546987500000005,0.2791892053692821,0.7672,12.085163056132266,0.0027050697038142942,0.03901088090979421,0.3391285878584863,0.00010504581042251814,0.00039450136184687734
1,Neck,118,1,Fall,0.8028954302520996,0.3861853691993006,6.0024,0.8028954302520996,0.3861853691993006,6.0024,0.8028954302520996,0.3861853691993006,6.0024,6.46535294117647,39.45905553870385,556.1500000000001,6.46535294117647,39.45905553870385,556.1500000000001,6.46535294117647,39.45905553870385,556.1500000000001,0.10319566249999984,0.13021974166821307,0.60354,0.10319566249999984,0.13021974166821307,0.60354,0.10319566249999984,0.13021974166821307,0.60354,12.302882459915207,0.001267856561256647,0.012840862365697703,0.3581731854729654,0.00017263747296442214,0.0008527360725402167
1,Neck,118,2,Fall,0.6760268613445385,0.45610465348365764,8.697868,0.6760268613445385,0.45610465348365764,8.697868,0.6760268613445385,0.45610465348365764,8.697868,5.023882352941159,54.67610609216397,1011.3600000000001,5.023882352941159,54.67610609216397,1011.3600000000001,5.023882352941159,54.67610609216397,1011.3600000000001,0.21762711250000014,0.17374400956205363,0.79646,0.21762711250000014,0.17374400956205363,0.79646,0.21762711250000014,0.17374400956205363,0.79646,12.085673842712133,0.0016283421955823954,0.016145930253133045,0.3443688970833778,0.00023204290244913865,0.0007018735885619409
1,Neck,119,1,Fall,0.5748996773109247,0.33017852942473885,4.667964,0.5748996773109247,0.33017852942473885,4.667964,0.5748996773109247,0.33017852942473885,4.667964,6.018573529411764,21.43894809651908,455.3500000000001,6.018573529411764,21.43894809651908,455.3500000000001,6.018573529411764,21.43894809651908,455.3500000000001,0.13381313749999982,0.12001735507669649,0.45835999999999993,0.13381313749999982,0.12001735507669649,0.45835999999999993,0.13381313749999982,0.12001735507669649,0.45835999999999993,12.30398192493162,0.000903466428990493,0.004819229429797289,0.3539812051277162,0.0002386754853083581,0.0007196221160889471
1,Neck,119,2,Fall,0.43453478151260316,0.4855044650311999,5.323592,0.43453478151260316,0.4855044650311999,5.323592,0.43453478151260316,0.4855044650311999,5.323592,4.473014705882315,32.41716760133269,632.3100000000001,4.473014705882315,32.41716760133269,632.3100000000001,4.473014705882315,32.41716760133269,632.3100000000001,-0.0618543625,0.13890161353767894,0.5430599999999999,-0.0618543625,0.13890161353767894,0.5430599999999999,-0.0618543625,0.13890161353767894,0.5430599999999999,12.30393288338219,0.0010542158945358864,0.005707474476144725,0.3549915884622574,0.00018378381149274092,0.0006171647071838149
1,Neck,119,3,Fall,0.42195478739495784,0.5600718077081992,10.435392,0.42195478739495784,0.5600718077081992,10.435392,0.42195478739495784,0.5600718077081992,10.435392,2.5233382352941245,45.541193587287694,816.27,2.5233382352941245,45.541193587287694,816.27,2.5233382352941245,45.541193587287694,816.27,0.09710513750000038,0.19984256189766528,0.66892,0.09710513750000038,0.19984256189766528,0.66892,0.09710513750000038,0.19984256189766528,0.66892,12.084463813582303,0.0015725064155045895,0.01871115644255994,0.3399792909178735,0.00027468154930697467,0.0008075580024720086
1,Neck,120,2,Fall,0.8912819697479024,0.26006307960696984,5.217696,0.8912819697479024,0.26006307960696984,5.217696,0.8912819697479024,0.26006307960696984,5.217696,5.872676470588248,39.841812821949034,685.1600000000001,5.872676470588248,39.841812821949034,685.1600000000001,5.872676470588248,39.841812821949034,685.1600000000001,0.013920900000000014,0.11261287440326655,0.5598599999999999,0.013920900000000014,0.11261287440326655,0.5598599999999999,0.013920900000000014,0.11261287440326655,0.5598599999999999,12.302057889470115,0.0009189020595109671,0.006505341215365945,0.3567471195224762,0.0001350999857261883,0.0006736372947692137
1,Neck,120,3,Fall,0.7764682310924391,0.3589500992664102,6.954732,0.7764682310924391,0.3589500992664102,6.954732,0.7764682310924391,0.3589500992664102,6.954732,3.2462352941176453,66.50253032381347,1448.5800000000002,3.2462352941176453,66.50253032381347,1448.5800000000002,3.2462352941176453,66.50253032381347,1448.5800000000002,0.30116931249999984,0.10978726549020709,0.5628,0.30116931249999984,0.10978726549020709,0.5628,0.30116931249999984,0.10978726549020709,0.5628,12.086732610424527,0.0015047960210027096,0.014620376251055944,0.3459584592424394,0.00035807589025685084,0.0009923040390014681
1,Neck,121,1,Fall,0.6027575571428581,0.6391040427478708,3.6643920000000003,0.6027575571428581,0.6391040427478708,3.6643920000000003,0.6027575571428581,0.6391040427478708,3.6643920000000003,7.741117647058781,38.70982459103233,579.8100000000001,7.741117647058781,38.70982459103233,579.8100000000001,7.741117647058781,38.70982459103233,579.8100000000001,0.3571041250000001,0.19353329621915236,0.49559999999999993,0.3571041250000001,0.19353329621915236,0.49559999999999993,0.3571041250000001,0.19353329621915236,0.49559999999999993,12.258260536094165,0.001596874683123952,0.011108911407779587,0.3545246368042947,6.0086195946619926e-05,0.0002460591316222893
1,Neck,121,2,Fall,0.5309256999999968,0.6749856747247656,3.5265319999999996,0.5309256999999968,0.6749856747247656,3.5265319999999996,0.5309256999999968,0.6749856747247656,3.5265319999999996,8.429823529411898,49.526872008496085,1142.4,8.429823529411898,49.526872008496085,1142.4,8.429823529411898,49.526872008496085,1142.4,0.3232739999999998,0.18997559663038766,0.60564,0.3232739999999998,0.18997559663038766,0.60564,0.3232739999999998,0.18997559663038766,0.60564,12.163595783502227,0.0011620586080458534,0.00580652755572153,0.30279033327512744,0.0003082692952052652,0.0010326416015625228
1,Neck,122,2,Fall,0.7210566512605029,0.6385355397105,4.63234,0.7210566512605029,0.6385355397105,4.63234,0.7210566512605029,0.6385355397105,4.63234,3.1064264705882136,43.337847697575604,921.2700000000001,3.1064264705882136,43.337847697575604,921.2700000000001,3.1064264705882136,43.337847697575604,921.2700000000001,0.2390061624999998,0.1052106172137948,0.41383999999999993,0.2390061624999998,0.1052106172137948,0.41383999999999993,0.2390061624999998,0.1052106172137948,0.41383999999999993,12.258870436991351,0.0010702469300272542,0.0068784063743869694,0.35675792595548644,0.00041641282173226677,0.0013956796646118486
1,Neck,123,1,Fall,0.39149548823529284,0.7862390702127512,4.216076,0.39149548823529284,0.7862390702127512,4.216076,0.39149548823529284,0.7862390702127512,4.216076,10.304147058822972,34.87400378528616,554.8900000000001,10.304147058822972,34.87400378528616,554.8900000000001,10.304147058822972,34.87400378528616,554.8900000000001,0.1173438,0.08937855448770367,0.5878599999999999,0.1173438,0.08937855448770367,0.5878599999999999,0.1173438,0.08937855448770367,0.5878599999999999,12.258156555784794,0.0013216769723259619,0.012216530283302163,0.35500020456562065,0.0001929588809858782,0.0006421739959717176
1,Neck,123,2,Fall,0.48556292184874145,0.6561885764664879,4.344908,0.48556292184874145,0.6561885764664879,4.344908,0.48556292184874145,0.6561885764664879,4.344908,7.771205882352945,43.703267317361224,1110.6200000000001,7.771205882352945,43.703267317361224,1110.6200000000001,7.771205882352945,43.703267317361224,1110.6200000000001,0.3621912875,0.20108773264916247,0.61978,0.3621912875,0.20108773264916247,0.61978,0.3621912875,0.20108773264916247,0.61978,12.163552011574907,0.0011152146757461038,0.005189463648251902,0.3060644283505441,0.00041122107555876603,0.001447311744689983
1,Neck,124,1,Fall,0.6863464210084051,0.6782308817613778,4.540596,0.6863464210084051,0.6782308817613778,4.540596,0.6863464210084051,0.6782308817613778,4.540596,5.058676470588237,46.52953306548236,509.18000000000006,5.058676470588237,46.52953306548236,509.18000000000006,5.058676470588237,46.52953306548236,509.18000000000006,0.19483843750000016,0.1065804131048222,0.52178,0.19483843750000016,0.1065804131048222,0.52178,0.19483843750000016,0.1065804131048222,0.52178,12.257922076758772,0.0010917039809612724,0.006427216628496879,0.3580749393055914,0.00019198972579046337,0.000662342777252134
1,Neck,124,2,Fall,0.687264752941179,0.6633870647403102,3.7841959999999997,0.687264752941179,0.6633870647403102,3.7841959999999997,0.687264752941179,0.6633870647403102,3.7841959999999997,3.5249264705882264,47.83435608007876,428.75000000000006,3.5249264705882264,47.83435608007876,428.75000000000006,3.5249264705882264,47.83435608007876,428.75000000000006,0.21474451250000037,0.09062213530930141,0.44898,0.21474451250000037,0.09062213530930141,0.44898,0.21474451250000037,0.09062213530930141,0.44898,12.258361845108512,0.0011288503024542995,0.007612425318779259,0.35697835056610133,0.0001629271251179303,0.000577633895874119
1,Neck,125,1,Fall,0.514367583193274,0.6736264769258762,5.342136,0.514367583193274,0.6736264769258762,5.342136,0.514367583193274,0.6736264769258762,5.342136,10.823441176470357,38.11919090872049,499.03000000000003,10.823441176470357,38.11919090872049,499.03000000000003,10.823441176470357,38.11919090872049,499.03000000000003,0.24925521249999993,0.09482052265215245,0.50932,0.24925521249999993,0.09482052265215245,0.50932,0.24925521249999993,0.09482052265215245,0.50932,12.259014604138361,0.0013524159815813462,0.006508574634084496,0.3575839948654175,0.00017095515883982384,0.0006099039459228073
1,Neck,125,2,Fall,0.3820861613445382,0.8692459425063456,10.842628,0.3820861613445382,0.8692459425063456,10.842628,0.3820861613445382,0.8692459425063456,10.842628,9.721529411764621,80.50914526571168,1634.7800000000002,9.721529411764621,80.50914526571168,1634.7800000000002,9.721529411764621,80.50914526571168,1634.7800000000002,0.32772127500000037,0.20321769265495626,0.5969599999999999,0.32772127500000037,0.20321769265495626,0.5969599999999999,0.32772127500000037,0.20321769265495626,0.5969599999999999,12.163518710418423,0.0011733125045025356,0.005090111422104471,0.3091243834075928,0.0003482309806675839,0.001198832359314006
1,Neck,126,1,Fall,0.6473212352941189,0.6427316451880362,4.0240480000000005,0.6473212352941189,0.6427316451880362,4.0240480000000005,0.6473212352941189,0.6427316451880362,4.0240480000000005,8.389235294117638,49.518183899157954,466.20000000000005,8.389235294117638,49.518183899157954,466.20000000000005,8.389235294117638,49.518183899157954,466.20000000000005,0.2790338249999994,0.15427880316511602,0.54054,0.2790338249999994,0.15427880316511602,0.54054,0.2790338249999994,0.15427880316511602,0.54054,12.307892070339008,0.0012906018722544563,0.010909698687395775,0.3438388897476195,0.00015559493414169388,0.0005639191246031849
1,Neck,126,2,Fall,0.8246578722689071,0.5530893460837791,3.3813519999999997,0.8246578722689071,0.5530893460837791,3.3813519999999997,0.8246578722689071,0.5530893460837791,3.3813519999999997,7.171500000000022,35.873069475780966,370.30000000000007,7.171500000000022,35.873069475780966,370.30000000000007,7.171500000000022,35.873069475780966,370.30000000000007,0.12253867499999997,0.12095783775893348,0.6251,0.12253867499999997,0.12095783775893348,0.6251,0.12253867499999997,0.12095783775893348,0.6251,12.306645139048834,0.0014562900759355602,0.012440458740648808,0.34527916662139896,0.00013625499043127306,0.0006131309509277982
1,Neck,127,1,Fall,-0.06415323865546237,0.1641787993254475,4.630144,-0.06415323865546237,0.1641787993254475,4.630144,-0.06415323865546237,0.1641787993254475,4.630144,6.014088235294103,26.466495238562363,692.02,6.014088235294103,26.466495238562363,692.02,6.014088235294103,26.466495238562363,692.02,-0.12203318750000021,0.16610974129678802,0.75572,-0.12203318750000021,0.16610974129678802,0.75572,-0.12203318750000021,0.16610974129678802,0.75572,12.15924863994544,0.0005197659054523504,0.002767814437847349,0.3397950127970696,0.00010416432885183491,0.0004856642532348743
1,Neck,127,2,Fall,-0.1298148689075637,0.15642888999290655,4.7641,-0.1298148689075637,0.15642888999290655,4.7641,-0.1298148689075637,0.15642888999290655,4.7641,3.697132352941151,39.32214205669614,791.7,3.697132352941151,39.32214205669614,791.7,3.697132352941151,39.32214205669614,791.7,0.20574006249999968,0.29189116941076476,0.6666799999999999,0.20574006249999968,0.29189116941076476,0.6666799999999999,0.20574006249999968,0.29189116941076476,0.6666799999999999,12.159751254950384,0.0008004280790759105,0.0036900246524993463,0.3407368908491135,6.542359505002478e-05,0.0002815561866759686
1,Neck,127,3,Fall,-0.3129374327731091,0.32763776754077917,5.8728359999999995,-0.3129374327731091,0.32763776754077917,5.8728359999999995,-0.3129374327731091,0.32763776754077917,5.8728359999999995,6.416279411764677,24.148971232763387,660.3800000000001,6.416279411764677,24.148971232763387,660.3800000000001,6.416279411764677,24.148971232763387,660.3800000000001,-0.09945284999999997,0.1423740617802092,0.7116199999999999,-0.09945284999999997,0.1423740617802092,0.7116199999999999,-0.09945284999999997,0.1423740617802092,0.7116199999999999,12.159509202355661,0.0005241716765685733,0.0034638366072972104,0.3415477565317155,8.386203831135099e-05,0.0003864338493346775
1,Neck,127,4,Fall,-0.03013358991596658,0.1364230393399736,3.099288,-0.03013358991596658,0.1364230393399736,3.099288,-0.03013358991596658,0.1364230393399736,3.099288,8.402102941176377,41.00213957857498,1380.8200000000002,8.402102941176377,41.00213957857498,1380.8200000000002,8.402102941176377,41.00213957857498,1380.8200000000002,0.006233762500000024,0.17407841144919864,0.7609,0.006233762500000024,0.17407841144919864,0.7609,0.006233762500000024,0.17407841144919864,0.7609,12.160001251613103,0.0006714739471430967,0.003947837666519405,0.34238145327472685,6.666837686802288e-05,0.0003154397392272634
1,Neck,128,1,Fall,0.28743117983193306,0.45634686932062224,2.016904,0.28743117983193306,0.45634686932062224,2.016904,0.28743117983193306,0.45634686932062224,2.016904,6.109999999999999,39.85984162967276,823.4100000000001,6.109999999999999,39.85984162967276,823.4100000000001,6.109999999999999,39.85984162967276,823.4100000000001,0.037833687499999956,0.19487200657930573,0.69748,0.037833687499999956,0.19487200657930573,0.69748,0.037833687499999956,0.19487200657930573,0.69748,12.159411779405213,0.00110861454208904,0.008803311126996505,0.34339908526926033,6.128334932664862e-05,0.00029204395294180063
1,Neck,128,2,Fall,0.3394129705882355,0.5388133090453607,6.987916,0.3394129705882355,0.5388133090453607,6.987916,0.3394129705882355,0.5388133090453607,6.987916,-0.4316029411764815,76.65136000517484,1320.7600000000002,-0.4316029411764815,76.65136000517484,1320.7600000000002,-0.4316029411764815,76.65136000517484,1320.7600000000002,0.06703672499999999,0.22012954114470254,0.71932,0.06703672499999999,0.22012954114470254,0.71932,0.06703672499999999,0.22012954114470254,0.71932,12.159677028964056,0.0006800616649503214,0.004067614528246111,0.34326534608058934,0.00023405701046036865,0.0007115546035765807
1,Neck,128,3,Fall,0.34930553025210054,0.49377822654144843,2.617632,0.34930553025210054,0.49377822654144843,2.617632,0.34930553025210054,0.49377822654144843,2.617632,13.763647058823505,47.05087429209994,927.01,13.763647058823505,47.05087429209994,927.01,13.763647058823505,47.05087429209994,927.01,0.003719450000000009,0.1761926813372094,0.7776999999999998,0.003719450000000009,0.1761926813372094,0.7776999999999998,0.003719450000000009,0.1761926813372094,0.7776999999999998,12.159564832558432,0.0005763932508550605,0.004014264264467826,0.34270644494876856,0.00017994838915570926,0.0005453638458252086
1,Neck,128,4,Fall,0.30616525378151266,0.48108252004987584,4.90684,0.30616525378151266,0.48108252004987584,4.90684,0.30616525378151266,0.48108252004987584,4.90684,11.532838235294133,44.23769206115948,866.7400000000001,11.532838235294133,44.23769206115948,866.7400000000001,11.532838235294133,44.23769206115948,866.7400000000001,9.178750000001063e-05,0.1736207793488251,0.7525,9.178750000001063e-05,0.1736207793488251,0.7525,9.178750000001063e-05,0.1736207793488251,0.7525,12.159722794008903,0.000734471477311932,0.005023493686920233,0.34270627956476196,5.893200673251652e-05,0.00027510217666631975
1,Neck,129,1,Fall,0.44233360588235426,0.31851005223803985,2.1935599999999997,0.44233360588235426,0.31851005223803985,2.1935599999999997,0.44233360588235426,0.31851005223803985,2.1935599999999997,6.957720588235214,23.749576369269427,485.24,6.957720588235214,23.749576369269427,485.24,6.957720588235214,23.749576369269427,485.24,0.40923653750000005,0.125892482782032,0.41257999999999995,0.40923653750000005,0.125892482782032,0.41257999999999995,0.40923653750000005,0.125892482782032,0.41257999999999995,12.304068564702073,0.0009397550663870797,0.004886741046060905,0.35110031657838825,0.0002238780676428885,0.0008285335350036171
1,Neck,130,1,Fall,0.2534823731092436,0.6697663401338083,5.401916,0.2534823731092436,0.6697663401338083,5.401916,0.2534823731092436,0.6697663401338083,5.401916,0.5913676470588328,36.520474894641126,803.25,0.5913676470588328,36.520474894641126,803.25,0.5913676470588328,36.520474894641126,803.25,0.12056756250000018,0.340400784848555,0.7371,0.12056756250000018,0.340400784848555,0.7371,0.12056756250000018,0.340400784848555,0.7371,12.30518162506816,0.0008668621067688958,0.008231679009382376,0.3493143185571671,0.00010847293230208781,0.0003460962867736783
1,Neck,131,1,Fall,0.653094244537813,0.308020903800849,4.117988,0.653094244537813,0.308020903800849,4.117988,0.653094244537813,0.308020903800849,4.117988,6.151102941176474,20.865256366557855,470.61,6.151102941176474,20.865256366557855,470.61,6.151102941176474,20.865256366557855,470.61,0.39906326249999985,0.020766925972927962,0.3542,0.39906326249999985,0.020766925972927962,0.3542,0.39906326249999985,0.020766925972927962,0.3542,12.304982084754702,0.0009858702422595933,0.010727766813262818,0.34912797111940364,0.0002557259371674649,0.0007881959724425625
1,Neck,131,2,Fall,0.4219719596638655,0.43721902387086276,5.548316,0.4219719596638655,0.43721902387086276,5.548316,0.4219719596638655,0.43721902387086276,5.548316,4.210161764705869,22.802001994841834,657.44,4.210161764705869,22.802001994841834,657.44,4.210161764705869,22.802001994841834,657.44,0.24418677499999955,0.18905059108567462,0.44617999999999997,0.24418677499999955,0.18905059108567462,0.44617999999999997,0.24418677499999955,0.18905059108567462,0.44617999999999997,12.30476671503973,0.0007749600157985175,0.005630004803665045,0.35057872365818044,0.00016695764729046677,0.0006179714584350071
1,Neck,132,1,Fall,0.4958596193277299,0.42849546148011247,3.597292,0.4958596193277299,0.42849546148011247,3.597292,0.4958596193277299,0.42849546148011247,3.597292,10.66577941176449,32.16119784456563,492.45000000000005,10.66577941176449,32.16119784456563,492.45000000000005,10.66577941176449,32.16119784456563,492.45000000000005,0.00412229999999995,0.07630914066022951,0.5948599999999999,0.00412229999999995,0.07630914066022951,0.5948599999999999,0.00412229999999995,0.07630914066022951,0.5948599999999999,12.305779726511876,0.000906059913634264,0.006003391406677494,0.34836459888296134,0.0001873318502049571,0.0005300355720519456
1,Neck,133,1,Fall,0.3777760243697494,0.5873449316267609,5.205252,0.3777760243697494,0.5873449316267609,5.205252,0.3777760243697494,0.5873449316267609,5.205252,1.888955882352937,40.019691967052616,644.77,1.888955882352937,40.019691967052616,644.77,1.888955882352937,40.019691967052616,644.77,-0.019137562499999955,0.1482588197421259,0.52696,-0.019137562499999955,0.1482588197421259,0.52696,-0.019137562499999955,0.1482588197421259,0.52696,12.305391205531954,0.0010346686313561562,0.007653354228407849,0.34850847893486014,0.00010737495610163206,0.0004057958793640126
1,Neck,134,1,Fall,0.6191945453781529,0.3258937030636159,4.889272,0.6191945453781529,0.3258937030636159,4.889272,0.6191945453781529,0.3258937030636159,4.889272,4.746264705882315,34.77529460423378,803.6000000000001,4.746264705882315,34.77529460423378,803.6000000000001,4.746264705882315,34.77529460423378,803.6000000000001,-0.031234787499999937,0.1420576344578924,0.4323199999999999,-0.031234787499999937,0.1420576344578924,0.4323199999999999,-0.031234787499999937,0.1420576344578924,0.4323199999999999,12.304847582496254,0.0014691103913064484,0.013938040600798729,0.3492938190078733,0.00027446309162749055,0.0007946499824524889
1,Neck,134,2,Fall,0.5025982739495812,0.44221478666073366,5.0708079999999995,0.5025982739495812,0.44221478666073366,5.0708079999999995,0.5025982739495812,0.44221478666073366,5.0708079999999995,5.781367647058816,20.066402985234756,383.18000000000006,5.781367647058816,20.066402985234756,383.18000000000006,5.781367647058816,20.066402985234756,383.18000000000006,0.05155027499999996,0.08664231979328202,0.35825999999999997,0.05155027499999996,0.08664231979328202,0.35825999999999997,0.05155027499999996,0.08664231979328202,0.35825999999999997,12.304753834685497,0.0013839980751685424,0.01123547135504488,0.35000857641391747,0.0002068625531214192,0.0006784778022765336
1,Neck,135,1,Fall,0.946461083193278,0.1923899150782029,5.380932,0.946461083193278,0.1923899150782029,5.380932,0.946461083193278,0.1923899150782029,5.380932,5.73130882352942,34.64374058292822,745.8500000000001,5.73130882352942,34.64374058292822,745.8500000000001,5.73130882352942,34.64374058292822,745.8500000000001,0.18630176249999966,0.06519040334722555,0.32395999999999997,0.18630176249999966,0.06519040334722555,0.32395999999999997,0.18630176249999966,0.06519040334722555,0.32395999999999997,12.304270572664363,0.000822195712546675,0.006064295692981503,0.3524736048620223,0.00027688219175762984,0.0008737116050720473
1,Neck,135,2,Fall,0.9201020605042,0.2161095720678723,8.408728,0.9201020605042,0.2161095720678723,8.408728,0.9201020605042,0.2161095720678723,8.408728,6.280147058823544,31.07704794662649,664.3000000000001,6.280147058823544,31.07704794662649,664.3000000000001,6.280147058823544,31.07704794662649,664.3000000000001,0.1324070999999996,0.06584418517637648,0.51968,0.1324070999999996,0.06584418517637648,0.51968,0.1324070999999996,0.06584418517637648,0.51968,12.30468684138645,0.000940491386786433,0.008427373774223312,0.35327211111545603,0.00015434400854011948,0.0005066397857666494
1,Wrist,1,1,No Fall,-0.37421982689075606,0.297577256404318,1.8663560000000001,-0.37421982689075606,0.297577256404318,1.8663560000000001,-0.37421982689075606,0.297577256404318,1.8663560000000001,1.1879999999999984,22.942086050927117,179.34000000000003,1.1879999999999984,22.942086050927117,179.34000000000003,1.1879999999999984,22.942086050927117,179.34000000000003,0.8162788374999996,0.2766993154127189,0.6578599999999999,0.8162788374999996,0.2766993154127189,0.6578599999999999,0.8162788374999996,0.2766993154127189,0.6578599999999999,12.16485094826932,0.00040690312188726977,0.002468970823919392,0.30645821896018977,0.0012047414887591788,0.0042019856929779165
1,Wrist,1,2,No Fall,-0.32769184621848735,0.2671683634145242,1.4400879999999998,-0.32769184621848735,0.2671683634145242,1.4400879999999998,-0.32769184621848735,0.2671683634145242,1.4400879999999998,0.8609852941176462,22.005303633380326,196.28000000000003,0.8609852941176462,22.005303633380326,196.28000000000003,0.8609852941176462,22.005303633380326,196.28000000000003,0.8393287000000007,0.2654898542402334,0.6794199999999999,0.8393287000000007,0.2654898542402334,0.6794199999999999,0.8393287000000007,0.2654898542402334,0.6794199999999999,12.164788996869206,0.00040679215602609396,0.0023245978650354715,0.31024119859371185,0.0007554803651535131,0.0026936218929291544
1,Wrist,1,3,No Fall,-0.3381465285714295,0.32784683771197815,1.6045440000000002,-0.3381465285714295,0.32784683771197815,1.6045440000000002,-0.3381465285714295,0.32784683771197815,1.6045440000000002,0.3932499999999996,29.710157601099667,246.05,0.3932499999999996,29.710157601099667,246.05,0.3932499999999996,29.710157601099667,246.05,0.8294373499999995,0.2677009792397222,0.665,0.8294373499999995,0.2677009792397222,0.665,0.8294373499999995,0.2677009792397222,0.665,12.16452828625499,0.00045586802183240546,0.002726723936916642,0.32417410488424314,0.0001308319768522815,0.0005632191753387472
1,Wrist,1,4,No Fall,-0.3315181865546227,0.2695625715146122,1.307596,-0.3315181865546227,0.2695625715146122,1.307596,-0.3315181865546227,0.2695625715146122,1.307596,0.8639852941176455,23.04950114209749,261.45000000000005,0.8639852941176455,23.04950114209749,261.45000000000005,0.8639852941176455,23.04950114209749,261.45000000000005,0.8501792249999994,0.23868016552236376,0.6325199999999999,0.8501792249999994,0.23868016552236376,0.6325199999999999,0.8501792249999994,0.23868016552236376,0.6325199999999999,12.164443223887671,0.0004179785721461025,0.0030660019643864445,0.3247231267464637,0.00017454968717932527,0.0007646566486358419
1,Wrist,2,1,No Fall,-0.37386131092436986,0.2978271983357259,1.8663560000000001,-0.37386131092436986,0.2978271983357259,1.8663560000000001,-0.37386131092436986,0.2978271983357259,1.8663560000000001,1.2067058823529417,22.942732771952713,179.34000000000003,1.2067058823529417,22.942732771952713,179.34000000000003,1.2067058823529417,22.942732771952713,179.34000000000003,0.8140515250000001,0.2750831182449932,0.6574399999999998,0.8140515250000001,0.2750831182449932,0.6574399999999998,0.8140515250000001,0.2750831182449932,0.6574399999999998,12.164839758266897,0.00041602167139229135,0.002551620723936665,0.30712593181042663,0.0011145127546741843,0.0038925777339934298
1,Wrist,2,2,No Fall,-0.32812996974789854,0.2669205848009096,1.4400879999999998,-0.32812996974789854,0.2669205848009096,1.4400879999999998,-0.32812996974789854,0.2669205848009096,1.4400879999999998,0.8423823529411788,22.00666310482992,196.28000000000003,0.8423823529411788,22.00666310482992,196.28000000000003,0.8423823529411788,22.00666310482992,196.28000000000003,0.8369871124999994,0.26405976855253266,0.6794199999999999,0.8369871124999994,0.26405976855253266,0.6794199999999999,0.8369871124999994,0.26405976855253266,0.6794199999999999,12.164782020480677,0.0004039320704154613,0.0022688602067386654,0.3105984398951053,0.000736755946536064,0.002586457157134958
1,Wrist,2,3,No Fall,-0.35182944369748026,0.3194209322886826,1.6045440000000002,-0.35182944369748026,0.3194209322886826,1.6045440000000002,-0.35182944369748026,0.3194209322886826,1.6045440000000002,0.4123970588235291,29.709606620788616,246.05,0.4123970588235291,29.709606620788616,246.05,0.4123970588235291,29.709606620788616,246.05,0.8247864624999994,0.2646516811635632,0.665,0.8247864624999994,0.2646516811635632,0.665,0.8247864624999994,0.2646516811635632,0.665,12.164491455284486,0.0004288278932713932,0.0024330291412208993,0.3242575443144323,0.00015836388503729916,0.0006027009201050593
1,Wrist,2,4,No Fall,-0.32899622100840403,0.27097577816758517,1.307596,-0.32899622100840403,0.27097577816758517,1.307596,-0.32899622100840403,0.27097577816758517,1.307596,0.8690441176470574,23.049551293348316,261.45000000000005,0.8690441176470574,23.049551293348316,261.45000000000005,0.8690441176470574,23.049551293348316,261.45000000000005,0.8498963374999994,0.23851350281635414,0.6325199999999999,0.8498963374999994,0.23851350281635414,0.6325199999999999,0.8498963374999994,0.23851350281635414,0.6325199999999999,12.164440891866708,0.0004212833068244604,0.0030660019643864445,0.3248025092259405,0.00019411988568803266,0.0007308151531219553
1,Wrist,3,1,No Fall,-0.37397987647058845,0.2977445952421866,1.8663560000000001,-0.37397987647058845,0.2977445952421866,1.8663560000000001,-0.37397987647058845,0.2977445952421866,1.8663560000000001,1.1802794117647017,22.94237581537419,179.34000000000003,1.1802794117647017,22.94237581537419,179.34000000000003,1.1802794117647017,22.94237581537419,179.34000000000003,0.8122114874999989,0.2737276453131249,0.6574399999999998,0.8122114874999989,0.2737276453131249,0.6574399999999998,0.8122114874999989,0.2737276453131249,0.6574399999999998,12.164802684043728,0.00042097579626869765,0.0025929764126289,0.30761629910917276,0.001055478793643032,0.0036170112705230517
1,Wrist,3,2,No Fall,-0.3292635957983181,0.266249723152468,1.4400879999999998,-0.3292635957983181,0.266249723152468,1.4400879999999998,-0.3292635957983181,0.266249723152468,1.4400879999999998,0.8384705882352963,22.00666907582703,196.28000000000003,0.8384705882352963,22.00666907582703,196.28000000000003,0.8384705882352963,22.00666907582703,196.28000000000003,0.8341067000000014,0.2622877241704553,0.6794199999999999,0.8341067000000014,0.2622877241704553,0.6794199999999999,0.8341067000000014,0.2622877241704553,0.6794199999999999,12.164752695695654,0.0004168002158264453,0.0023306711471633434,0.3109531551705837,0.0007226836191503984,0.0025163569164276534
1,Wrist,3,3,No Fall,-0.3681067042016822,0.30828739035234787,1.6045440000000002,-0.3681067042016822,0.30828739035234787,1.6045440000000002,-0.3681067042016822,0.30828739035234787,1.6045440000000002,0.43282352941176283,29.710485553209917,246.05,0.43282352941176283,29.710485553209917,246.05,0.43282352941176283,29.710485553209917,246.05,0.8192309999999998,0.2608620986979244,0.665,0.8192309999999998,0.2608620986979244,0.665,0.8192309999999998,0.2608620986979244,0.665,12.164482970830528,0.00043476503006715774,0.0026764407478321317,0.32435679658627514,0.00019767160844926795,0.0006163986682892197
1,Wrist,3,4,No Fall,-0.3260236243697482,0.2725715731290342,1.307596,-0.3260236243697482,0.2725715731290342,1.307596,-0.3260236243697482,0.2725715731290342,1.307596,0.8626323529411746,23.04906433546077,261.45000000000005,0.8626323529411746,23.04906433546077,261.45000000000005,0.8626323529411746,23.04906433546077,261.45000000000005,0.8498244125000002,0.23847824662870523,0.6325199999999999,0.8498244125000002,0.23847824662870523,0.6325199999999999,0.8498244125000002,0.23847824662870523,0.6325199999999999,12.164433102795245,0.00042651938654604467,0.0030660019643864445,0.32489357105011935,0.00022132075839090978,0.0007147001552582632
1,Wrist,4,1,No Fall,-0.20402090756302518,0.12307293312867448,1.473272,-0.20402090756302518,0.12307293312867448,1.473272,-0.20402090756302518,0.12307293312867448,1.473272,0.01479411764705764,13.049624228231794,190.12,0.01479411764705764,13.049624228231794,190.12,0.01479411764705764,13.049624228231794,190.12,0.9650222749999982,0.12261267556396847,0.6873999999999998,0.9650222749999982,0.12261267556396847,0.6873999999999998,0.9650222749999982,0.12261267556396847,0.6873999999999998,12.16468454443138,0.0004246991479468186,0.002324303798879157,0.31255169044117936,0.0006220753086370947,0.0021569924640655325
1,Wrist,4,2,No Fall,-0.19382227142857153,0.14176070028611912,3.473096,-0.19382227142857153,0.14176070028611912,3.473096,-0.19382227142857153,0.14176070028611912,3.473096,0.4795441176470596,20.16781938718072,321.72,0.4795441176470596,20.16781938718072,321.72,0.4795441176470596,20.16781938718072,321.72,0.964282637499999,0.12745707102153836,0.73794,0.964282637499999,0.12745707102153836,0.73794,0.964282637499999,0.12745707102153836,0.73794,12.164706104940432,0.0004002101677490058,0.0022671225473764878,0.31397244102659216,0.0005216109208170341,0.0017879590129852851
1,Wrist,4,3,No Fall,-0.18601027310924287,0.10956994152089063,2.155252,-0.18601027310924287,0.10956994152089063,2.155252,-0.18601027310924287,0.10956994152089063,2.155252,0.8499558823529432,15.706431635602348,263.90000000000003,0.8499558823529432,15.706431635602348,263.90000000000003,0.8499558823529432,15.706431635602348,263.90000000000003,0.9709398124999994,0.09400032401160267,0.6461000000000001,0.9709398124999994,0.09400032401160267,0.6461000000000001,0.9709398124999994,0.09400032401160267,0.6461000000000001,12.164418401460809,0.00044424841175628874,0.003163559496670132,0.32535902859091775,0.00022817340796152003,0.0008307281398772237
1,Wrist,4,4,No Fall,-0.18283637647058845,0.11679256408117465,2.30824,-0.18283637647058845,0.11679256408117465,2.30824,-0.18283637647058845,0.11679256408117465,2.30824,0.5356617647058831,19.596428902836795,337.33000000000004,0.5356617647058831,19.596428902836795,337.33000000000004,0.5356617647058831,19.596428902836795,337.33000000000004,0.9708954500000001,0.0920545556996672,0.6475,0.9708954500000001,0.0920545556996672,0.6475,0.9708954500000001,0.0920545556996672,0.6475,12.16442104309236,0.0004429708401862843,0.0027420606917161194,0.32580918091249456,0.0001567242844846316,0.0005027879333495688
1,Wrist,5,1,No Fall,-0.4015139436974801,0.34085895586915377,1.42252,-0.4015139436974801,0.34085895586915377,1.42252,-0.4015139436974801,0.34085895586915377,1.42252,4.572294117647048,35.45141247614159,181.37,4.572294117647048,35.45141247614159,181.37,4.572294117647048,35.45141247614159,181.37,0.8658613249999993,0.13035966583185066,0.3845799999999999,0.8658613249999993,0.13035966583185066,0.3845799999999999,0.8658613249999993,0.13035966583185066,0.3845799999999999,12.164390039294258,0.0005111396621659839,0.003071231745433778,0.3150862532764434,0.000427942935361405,0.0014970833015441887
