SubjectID,Device,ActivityID,TrialNo,Fall,Mean Acc X,Std Acc X,Rng Acc X,Mean Acc Y,Std Acc Y,Rng Acc Y,Mean Acc Z,Std Acc Z,Rng Acc Z,Mean Gyr X,Std Gyr X,Rng Gyr X,Mean Gyr Y,Std Gyr Y,Rng Gyr Y,Mean Gyr Z,Std Gyr Z,Rng Gyr Z,Mean Mag X,Std Mag X,Rng Mag X,Mean Mag Y,Std Mag Y,Rng Mag Y,Mean Mag Z,Std Mag Z,Rng Mag Z
1,Neck,13,1,No Fall,0.9656503504201668,0.05604832389672855,0.46652799999999994,0.9656503504201668,0.05604832389672855,0.46652799999999994,0.9656503504201668,0.05604832389672855,0.46652799999999994,5.075955882352948,10.87961458613841,124.46000000000001,5.075955882352948,10.87961458613841,124.46000000000001,5.075955882352948,10.87961458613841,124.46000000000001,0.2463156499999998,0.1258287405525688,0.49391999999999997,0.2463156499999998,0.1258287405525688,0.49391999999999997,0.2463156499999998,0.1258287405525688,0.49391999999999997
1,Neck,13,2,No Fall,0.966358360504199,0.032714839241953717,0.320616,0.966358360504199,0.032714839241953717,0.320616,0.966358360504199,0.032714839241953717,0.320616,5.2630882352941155,13.146693998953143,159.60000000000002,5.2630882352941155,13.146693998953143,159.60000000000002,5.2630882352941155,13.146693998953143,159.60000000000002,0.29855455000000036,0.04090229283636852,0.22749999999999998,0.29855455000000036,0.04090229283636852,0.22749999999999998,0.29855455000000036,0.04090229283636852,0.22749999999999998
1,Neck,13,3,No Fall,0.9724285781512602,0.06198623632192569,0.609756,0.9724285781512602,0.06198623632192569,0.609756,0.9724285781512602,0.06198623632192569,0.609756,5.410014705882352,12.6474177278862,184.38000000000002,5.410014705882352,12.6474177278862,184.38000000000002,5.410014705882352,12.6474177278862,184.38000000000002,0.0652708875,0.1136317492175109,0.34621999999999997,0.0652708875,0.1136317492175109,0.34621999999999997,0.0652708875,0.1136317492175109,0.34621999999999997
1,Neck,13,4,No Fall,0.9671803739495795,0.040854925573111246,0.43602799999999997,0.9671803739495795,0.040854925573111246,0.43602799999999997,0.9671803739495795,0.040854925573111246,0.43602799999999997,5.488117647058814,13.480346672228846,176.40000000000003,5.488117647058814,13.480346672228846,176.40000000000003,5.488117647058814,13.480346672228846,176.40000000000003,-0.004765775000000001,0.04395528005601117,0.27412,-0.004765775000000001,0.04395528005601117,0.27412,-0.004765775000000001,0.04395528005601117,0.27412
1,Neck,13,5,No Fall,0.9592532957983235,0.05802380530476112,0.5455839999999998,0.9592532957983235,0.05802380530476112,0.5455839999999998,0.9592532957983235,0.05802380530476112,0.5455839999999998,4.716529411764722,13.49759331715482,110.46000000000001,4.716529411764722,13.49759331715482,110.46000000000001,4.716529411764722,13.49759331715482,110.46000000000001,0.1976257499999996,0.11378735457081844,0.50876,0.1976257499999996,0.11378735457081844,0.50876,0.1976257499999996,0.11378735457081844,0.50876
1,Neck,13,6,No Fall,0.9544681277310916,0.03992813013329903,0.6012160000000001,0.9544681277310916,0.03992813013329903,0.6012160000000001,0.9544681277310916,0.03992813013329903,0.6012160000000001,5.467588235294122,15.491530502738522,177.24,5.467588235294122,15.491530502738522,177.24,5.467588235294122,15.491530502738522,177.24,0.26603071249999993,0.04812286196959744,0.26264,0.26603071249999993,0.04812286196959744,0.26264,0.26603071249999993,0.04812286196959744,0.26264
1,Neck,13,7,No Fall,0.9586852781512659,0.054690571097488996,0.5106920000000001,0.9586852781512659,0.054690571097488996,0.5106920000000001,0.9586852781512659,0.054690571097488996,0.5106920000000001,5.128294117647063,12.035496710879281,144.2,5.128294117647063,12.035496710879281,144.2,5.128294117647063,12.035496710879281,144.2,0.023384462500000158,0.11105985477626668,0.35475999999999996,0.023384462500000158,0.11105985477626668,0.35475999999999996,0.023384462500000158,0.11105985477626668,0.35475999999999996
1,Neck,13,8,No Fall,0.9483459831932799,0.026640058023830706,0.462136,0.9483459831932799,0.026640058023830706,0.462136,0.9483459831932799,0.026640058023830706,0.462136,5.323441176470594,14.602928936432239,226.8,5.323441176470594,14.602928936432239,226.8,5.323441176470594,14.602928936432239,226.8,-0.06536661249999991,0.04430547577912759,0.27552,-0.06536661249999991,0.04430547577912759,0.27552,-0.06536661249999991,0.04430547577912759,0.27552
1,Neck,13,9,No Fall,0.9418896201680625,0.06848239764737958,0.646356,0.9418896201680625,0.06848239764737958,0.646356,0.9418896201680625,0.06848239764737958,0.646356,5.228000000000019,13.948937414840996,160.51000000000002,5.228000000000019,13.948937414840996,160.51000000000002,5.228000000000019,13.948937414840996,160.51000000000002,0.17645468749999974,0.10528215513155892,0.50106,0.17645468749999974,0.10528215513155892,0.50106,0.17645468749999974,0.10528215513155892,0.50106
1,Neck,13,10,No Fall,0.945786136134455,0.02858895763262117,0.297192,0.945786136134455,0.02858895763262117,0.297192,0.945786136134455,0.02858895763262117,0.297192,5.198573529411763,13.601978492650767,147.35000000000002,5.198573529411763,13.601978492650767,147.35000000000002,5.198573529411763,13.601978492650767,147.35000000000002,0.2666874874999993,0.04371669530159398,0.2562,0.2666874874999993,0.04371669530159398,0.2562,0.2666874874999993,0.04371669530159398,0.2562
1,Neck,13,12,No Fall,0.9305354184873973,0.06308207427210656,0.867176,0.9305354184873973,0.06308207427210656,0.867176,0.9305354184873973,0.06308207427210656,0.867176,6.352588235294143,18.093877239325636,221.13,6.352588235294143,18.093877239325636,221.13,6.352588235294143,18.093877239325636,221.13,0.06697967500000003,0.09634150827280806,0.30155999999999994,0.06697967500000003,0.09634150827280806,0.30155999999999994,0.06697967500000003,0.09634150827280806,0.30155999999999994
1,Neck,14,1,No Fall,0.9671176823529419,0.057148892623382914,0.5353359999999999,0.9671176823529419,0.057148892623382914,0.5353359999999999,0.9671176823529419,0.057148892623382914,0.5353359999999999,5.17051470588235,13.535866177486438,132.93,5.17051470588235,13.535866177486438,132.93,5.17051470588235,13.535866177486438,132.93,0.27340337500000017,0.08721343641200664,0.40431999999999996,0.27340337500000017,0.08721343641200664,0.40431999999999996,0.27340337500000017,0.08721343641200664,0.40431999999999996
1,Neck,14,2,No Fall,0.9653077764705864,0.03237553069658177,0.2381439999999999,0.9653077764705864,0.03237553069658177,0.2381439999999999,0.9653077764705864,0.03237553069658177,0.2381439999999999,4.83957352941177,13.499947324920875,175.07000000000002,4.83957352941177,13.499947324920875,175.07000000000002,4.83957352941177,13.499947324920875,175.07000000000002,0.29043717500000016,0.04551210098539115,0.2506,0.29043717500000016,0.04551210098539115,0.2506,0.29043717500000016,0.04551210098539115,0.2506
1,Neck,14,3,No Fall,0.9680733319327732,0.05002586485403844,0.45066799999999996,0.9680733319327732,0.05002586485403844,0.45066799999999996,0.9680733319327732,0.05002586485403844,0.45066799999999996,6.279705882352943,13.041975872070315,152.88,6.279705882352943,13.041975872070315,152.88,6.279705882352943,13.041975872070315,152.88,0.04761321249999999,0.10210973816351805,0.36722,0.04761321249999999,0.10210973816351805,0.36722,0.04761321249999999,0.10210973816351805,0.36722
1,Neck,14,4,No Fall,0.962839224369747,0.041619944792819615,0.2737680000000001,0.962839224369747,0.041619944792819615,0.2737680000000001,0.962839224369747,0.041619944792819615,0.2737680000000001,4.882411764705889,14.288477188130821,143.64000000000001,4.882411764705889,14.288477188130821,143.64000000000001,4.882411764705889,14.288477188130821,143.64000000000001,-0.004376575000000005,0.057228539281874935,0.34482,-0.004376575000000005,0.057228539281874935,0.34482,-0.004376575000000005,0.057228539281874935,0.34482
1,Neck,14,5,No Fall,0.9596301117647061,0.05736633906230497,0.575352,0.9596301117647061,0.05736633906230497,0.575352,0.9596301117647061,0.05736633906230497,0.575352,4.7561470588235135,13.41614905949876,148.26,4.7561470588235135,13.41614905949876,148.26,4.7561470588235135,13.41614905949876,148.26,0.20346173750000002,0.11080542134347723,0.4912599999999999,0.20346173750000002,0.11080542134347723,0.4912599999999999,0.20346173750000002,0.11080542134347723,0.4912599999999999
1,Neck,14,6,No Fall,0.9532394647058825,0.03496801532554494,0.48165599999999986,0.9532394647058825,0.03496801532554494,0.48165599999999986,0.9532394647058825,0.03496801532554494,0.48165599999999986,4.780838235294125,15.54483529202661,179.97000000000003,4.780838235294125,15.54483529202661,179.97000000000003,4.780838235294125,15.54483529202661,179.97000000000003,0.2679714624999996,0.051020966594687855,0.2996,0.2679714624999996,0.051020966594687855,0.2996,0.2679714624999996,0.051020966594687855,0.2996
1,Neck,14,7,No Fall,0.9593220873949594,0.05931720079339011,0.4914160000000001,0.9593220873949594,0.05931720079339011,0.4914160000000001,0.9593220873949594,0.05931720079339011,0.4914160000000001,4.727352941176463,10.7200551413248,128.17000000000002,4.727352941176463,10.7200551413248,128.17000000000002,4.727352941176463,10.7200551413248,128.17000000000002,0.01029796249999998,0.11244499871796888,0.37351999999999996,0.01029796249999998,0.11244499871796888,0.37351999999999996,0.01029796249999998,0.11244499871796888,0.37351999999999996
1,Neck,14,8,No Fall,0.9466959075630265,0.029351280201392854,0.3699040000000001,0.9466959075630265,0.029351280201392854,0.3699040000000001,0.9466959075630265,0.029351280201392854,0.3699040000000001,5.122529411764703,12.552813821964033,132.86,5.122529411764703,12.552813821964033,132.86,5.122529411764703,12.552813821964033,132.86,-0.07272824999999979,0.038617249020206995,0.25914,-0.07272824999999979,0.038617249020206995,0.25914,-0.07272824999999979,0.038617249020206995,0.25914
1,Neck,14,9,No Fall,0.9488177848739516,0.0651149828953426,0.708576,0.9488177848739516,0.0651149828953426,0.708576,0.9488177848739516,0.0651149828953426,0.708576,5.7202352941176615,13.827256982728523,140.42000000000002,5.7202352941176615,13.827256982728523,140.42000000000002,5.7202352941176615,13.827256982728523,140.42000000000002,0.2067178749999999,0.08744283947152937,0.46773999999999993,0.2067178749999999,0.08744283947152937,0.46773999999999993,0.2067178749999999,0.08744283947152937,0.46773999999999993
1,Neck,14,10,No Fall,0.9476370504201668,0.03565597579351523,0.49532,0.9476370504201668,0.03565597579351523,0.49532,0.9476370504201668,0.03565597579351523,0.49532,4.918176470588239,14.158902778043071,190.54000000000002,4.918176470588239,14.158902778043071,190.54000000000002,4.918176470588239,14.158902778043071,190.54000000000002,0.26651169999999946,0.039769913343689914,0.24178,0.26651169999999946,0.039769913343689914,0.24178,0.26651169999999946,0.039769913343689914,0.24178
1,Neck,15,1,No Fall,0.9614386336134434,0.1348980164308613,2.265052,0.9614386336134434,0.1348980164308613,2.265052,0.9614386336134434,0.1348980164308613,2.265052,4.988691176470585,15.073074393214462,180.67000000000002,4.988691176470585,15.073074393214462,180.67000000000002,4.988691176470585,15.073074393214462,180.67000000000002,0.3104324124999998,0.04747572596103243,0.2861599999999999,0.3104324124999998,0.04747572596103243,0.2861599999999999,0.3104324124999998,0.04747572596103243,0.2861599999999999
1,Neck,15,2,No Fall,0.9566733033613439,0.1667064531533422,3.218848,0.9566733033613439,0.1667064531533422,3.218848,0.9566733033613439,0.1667064531533422,3.218848,5.17848529411766,19.376248122283037,266.07000000000005,5.17848529411766,19.376248122283037,266.07000000000005,5.17848529411766,19.376248122283037,266.07000000000005,0.28762247500000004,0.04746079655758594,0.34552000000000005,0.28762247500000004,0.04746079655758594,0.34552000000000005,0.28762247500000004,0.04746079655758594,0.34552000000000005
1,Neck,15,3,No Fall,0.9339659764705899,0.177810018456886,3.45016,0.9339659764705899,0.177810018456886,3.45016,0.9339659764705899,0.177810018456886,3.45016,5.49316176470588,17.88980383396606,348.11,5.49316176470588,17.88980383396606,348.11,5.49316176470588,17.88980383396606,348.11,0.2642414249999997,0.056894354550400594,0.31304,0.2642414249999997,0.056894354550400594,0.31304,0.2642414249999997,0.056894354550400594,0.31304
1,Neck,16,1,No Fall,0.5821878957983178,0.36791545286276334,1.066768,0.5821878957983178,0.36791545286276334,1.066768,0.5821878957983178,0.36791545286276334,1.066768,4.824926470588277,12.759177784222937,125.79000000000002,4.824926470588277,12.759177784222937,125.79000000000002,4.824926470588277,12.759177784222937,125.79000000000002,0.23657313749999997,0.06939168900682999,0.32858,0.23657313749999997,0.06939168900682999,0.32858,0.23657313749999997,0.06939168900682999,0.32858
1,Neck,16,2,No Fall,0.4588491764705828,0.448302353968788,1.7277639999999999,0.4588491764705828,0.448302353968788,1.7277639999999999,0.4588491764705828,0.448302353968788,1.7277639999999999,5.045352941176545,13.675527469422795,150.29000000000002,5.045352941176545,13.675527469422795,150.29000000000002,5.045352941176545,13.675527469422795,150.29000000000002,0.18406115000000012,0.07587377421537725,0.36568,0.18406115000000012,0.07587377421537725,0.36568,0.18406115000000012,0.07587377421537725,0.36568
1,Neck,16,3,No Fall,0.44678199243697725,0.5358647319056088,1.8422,0.44678199243697725,0.5358647319056088,1.8422,0.44678199243697725,0.5358647319056088,1.8422,4.363338235294102,15.332979079702008,231.98000000000002,4.363338235294102,15.332979079702008,231.98000000000002,4.363338235294102,15.332979079702008,231.98000000000002,0.14656223749999994,0.11142506669809094,0.5628,0.14656223749999994,0.11142506669809094,0.5628,0.14656223749999994,0.11142506669809094,0.5628
1,Neck,16,4,No Fall,0.5866876453781509,0.3721833770244579,1.238544,0.5866876453781509,0.3721833770244579,1.238544,0.5866876453781509,0.3721833770244579,1.238544,3.129617647058823,19.346210195790796,154.42000000000002,3.129617647058823,19.346210195790796,154.42000000000002,3.129617647058823,19.346210195790796,154.42000000000002,0.024719887500000003,0.1158094419056966,0.53186,0.024719887500000003,0.1158094419056966,0.53186,0.024719887500000003,0.1158094419056966,0.53186
1,Neck,16,5,No Fall,0.5340781184873993,0.4378486925362782,1.263188,0.5340781184873993,0.4378486925362782,1.263188,0.5340781184873993,0.4378486925362782,1.263188,4.564147058823517,20.40654495959236,162.75,4.564147058823517,20.40654495959236,162.75,4.564147058823517,20.40654495959236,162.75,0.0485300375,0.09007179858069239,0.45247999999999994,0.0485300375,0.09007179858069239,0.45247999999999994,0.0485300375,0.09007179858069239,0.45247999999999994
1,Neck,17,1,No Fall,0.36458690168067315,0.2569154284444192,1.057008,0.36458690168067315,0.2569154284444192,1.057008,0.36458690168067315,0.2569154284444192,1.057008,5.125794117647084,9.39551894102149,103.11000000000001,5.125794117647084,9.39551894102149,103.11000000000001,5.125794117647084,9.39551894102149,103.11000000000001,0.06766628749999985,0.135594367014069,0.46928,0.06766628749999985,0.135594367014069,0.46928,0.06766628749999985,0.135594367014069,0.46928
1,Neck,17,2,No Fall,0.2529819168067229,0.21221635753871473,0.8288679999999999,0.2529819168067229,0.21221635753871473,0.8288679999999999,0.2529819168067229,0.21221635753871473,0.8288679999999999,5.851455882352921,12.866102416310602,216.72000000000003,5.851455882352921,12.866102416310602,216.72000000000003,5.851455882352921,12.866102416310602,216.72000000000003,0.028865812499999935,0.11933742292878795,0.41187999999999997,0.028865812499999935,0.11933742292878795,0.41187999999999997,0.028865812499999935,0.11933742292878795,0.41187999999999997
1,Neck,17,3,No Fall,0.05984515210084014,0.20924689473896402,0.701256,0.05984515210084014,0.20924689473896402,0.701256,0.05984515210084014,0.20924689473896402,0.701256,6.651323529411741,7.211952979817465,61.39,6.651323529411741,7.211952979817465,61.39,6.651323529411741,7.211952979817465,61.39,-0.03690137499999997,0.12822335823908282,0.357,-0.03690137499999997,0.12822335823908282,0.357,-0.03690137499999997,0.12822335823908282,0.357
1,Neck,17,4,No Fall,0.16318299663865518,0.12036087288211533,0.89182,0.16318299663865518,0.12036087288211533,0.89182,0.16318299663865518,0.12036087288211533,0.89182,6.08507352941174,10.37332865875501,94.85000000000002,6.08507352941174,10.37332865875501,94.85000000000002,6.08507352941174,10.37332865875501,94.85000000000002,0.13396556249999994,0.2202129502844449,0.60732,0.13396556249999994,0.2202129502844449,0.60732,0.13396556249999994,0.2202129502844449,0.60732
1,Neck,17,5,No Fall,0.14851998067226868,0.14751050199462673,0.905972,0.14851998067226868,0.14751050199462673,0.905972,0.14851998067226868,0.14751050199462673,0.905972,6.684558823529392,21.33080877213045,390.39,6.684558823529392,21.33080877213045,390.39,6.684558823529392,21.33080877213045,390.39,0.24682734999999995,0.2785932312688081,0.7677599999999999,0.24682734999999995,0.2785932312688081,0.7677599999999999,0.24682734999999995,0.2785932312688081,0.7677599999999999
1,Neck,17,6,No Fall,0.38477605630252093,0.22342764922393848,1.4510679999999998,0.38477605630252093,0.22342764922393848,1.4510679999999998,0.38477605630252093,0.22342764922393848,1.4510679999999998,3.777970588235292,19.08925817090393,294.91,3.777970588235292,19.08925817090393,294.91,3.777970588235292,19.08925817090393,294.91,0.19021765000000004,0.15934065009661164,0.58646,0.19021765000000004,0.15934065009661164,0.58646,0.19021765000000004,0.15934065009661164,0.58646
1,Neck,18,1,No Fall,0.7715018571428571,0.13072523926129684,0.635132,0.7715018571428571,0.13072523926129684,0.635132,0.7715018571428571,0.13072523926129684,0.635132,2.610058823529409,14.57862750427092,92.4,2.610058823529409,14.57862750427092,92.4,2.610058823529409,14.57862750427092,92.4,0.12747472499999998,0.15588251487162078,0.6880999999999999,0.12747472499999998,0.15588251487162078,0.6880999999999999,0.12747472499999998,0.15588251487162078,0.6880999999999999
1,Neck,18,2,No Fall,0.6492397621848741,0.22006216004916096,0.69296,0.6492397621848741,0.22006216004916096,0.69296,0.6492397621848741,0.22006216004916096,0.69296,6.854720588235285,13.45899034329122,116.34000000000002,6.854720588235285,13.45899034329122,116.34000000000002,6.854720588235285,13.45899034329122,116.34000000000002,0.15415461249999987,0.20610916911001118,0.70994,0.15415461249999987,0.20610916911001118,0.70994,0.15415461249999987,0.20610916911001118,0.70994
1,Neck,18,3,No Fall,0.5871014201680689,0.35202450434848725,1.1504599999999998,0.5871014201680689,0.35202450434848725,1.1504599999999998,0.5871014201680689,0.35202450434848725,1.1504599999999998,8.409794117647037,20.17347639196004,188.23000000000002,8.409794117647037,20.17347639196004,188.23000000000002,8.409794117647037,20.17347639196004,188.23000000000002,0.0129994375000001,0.1854037620270747,0.7,0.0129994375000001,0.1854037620270747,0.7,0.0129994375000001,0.1854037620270747,0.7
1,Neck,18,4,No Fall,0.6269629722689072,0.333891742696749,0.8891359999999999,0.6269629722689072,0.333891742696749,0.8891359999999999,0.6269629722689072,0.333891742696749,0.8891359999999999,5.54011764705884,17.130808207961927,177.03000000000003,5.54011764705884,17.130808207961927,177.03000000000003,5.54011764705884,17.130808207961927,177.03000000000003,0.28720448750000044,0.08479971450630039,0.39158,0.28720448750000044,0.08479971450630039,0.39158,0.28720448750000044,0.08479971450630039,0.39158
1,Neck,18,5,No Fall,0.599830992436976,0.31893150568208734,1.051884,0.599830992436976,0.31893150568208734,1.051884,0.599830992436976,0.31893150568208734,1.051884,5.508985294117633,21.2855000094732,225.96000000000004,5.508985294117633,21.2855000094732,225.96000000000004,5.508985294117633,21.2855000094732,225.96000000000004,0.3531462375000002,0.186036088640797,0.5348,0.3531462375000002,0.186036088640797,0.5348,0.3531462375000002,0.186036088640797,0.5348
1,Neck,18,6,No Fall,0.6762416941176468,0.31584085244694987,1.125572,0.6762416941176468,0.31584085244694987,1.125572,0.6762416941176468,0.31584085244694987,1.125572,4.968088235294111,15.590989228241396,171.08,4.968088235294111,15.590989228241396,171.08,4.968088235294111,15.590989228241396,171.08,0.28975485000000006,0.05857229556374974,0.27412,0.28975485000000006,0.05857229556374974,0.27412,0.28975485000000006,0.05857229556374974,0.27412
1,Neck,19,1,No Fall,0.9430587697479,0.10069049082640684,0.7795799999999999,0.9430587697479,0.10069049082640684,0.7795799999999999,0.9430587697479,0.10069049082640684,0.7795799999999999,5.12498529411766,11.836813768979663,91.14000000000001,5.12498529411766,11.836813768979663,91.14000000000001,5.12498529411766,11.836813768979663,91.14000000000001,0.08201952500000009,0.05139081303661906,0.31402,0.08201952500000009,0.05139081303661906,0.31402,0.08201952500000009,0.05139081303661906,0.31402
1,Neck,19,2,No Fall,0.9445389680672263,0.0881858240651181,0.7036960000000001,0.9445389680672263,0.0881858240651181,0.7036960000000001,0.9445389680672263,0.0881858240651181,0.7036960000000001,5.268176470588216,7.68567692465945,68.81,5.268176470588216,7.68567692465945,68.81,5.268176470588216,7.68567692465945,68.81,0.14476971250000006,0.04339915202414793,0.18409999999999999,0.14476971250000006,0.04339915202414793,0.18409999999999999,0.14476971250000006,0.04339915202414793,0.18409999999999999
1,Neck,19,4,No Fall,0.9455985226890783,0.12781734706023032,1.0043039999999999,0.9455985226890783,0.12781734706023032,1.0043039999999999,0.9455985226890783,0.12781734706023032,1.0043039999999999,5.332014705882341,7.376353941754899,60.34,5.332014705882341,7.376353941754899,60.34,5.332014705882341,7.376353941754899,60.34,-0.02213837499999998,0.060698070926869435,0.20845999999999998,-0.02213837499999998,0.060698070926869435,0.20845999999999998,-0.02213837499999998,0.060698070926869435,0.20845999999999998
1,Neck,19,6,No Fall,0.9537887722689092,0.13428043473424872,0.9813679999999999,0.9537887722689092,0.13428043473424872,0.9813679999999999,0.9537887722689092,0.13428043473424872,0.9813679999999999,5.54141176470588,8.11819766506387,85.05000000000001,5.54141176470588,8.11819766506387,85.05000000000001,5.54141176470588,8.11819766506387,85.05000000000001,0.044783637500000056,0.05590132131351159,0.23856,0.044783637500000056,0.05590132131351159,0.23856,0.044783637500000056,0.05590132131351159,0.23856
1,Neck,20,1,No Fall,0.9444248109243678,0.09697479107962821,0.519232,0.9444248109243678,0.09697479107962821,0.519232,0.9444248109243678,0.09697479107962821,0.519232,5.778808823529401,6.884841994173143,46.480000000000004,5.778808823529401,6.884841994173143,46.480000000000004,5.778808823529401,6.884841994173143,46.480000000000004,0.18586732499999997,0.01850889947955684,0.11549999999999999,0.18586732499999997,0.01850889947955684,0.11549999999999999,0.18586732499999997,0.01850889947955684,0.11549999999999999
1,Neck,20,2,No Fall,0.9469736369747881,0.12860186426900144,0.8627839999999999,0.9469736369747881,0.12860186426900144,0.8627839999999999,0.9469736369747881,0.12860186426900144,0.8627839999999999,7.206808823529408,10.424247803186866,72.66000000000001,7.206808823529408,10.424247803186866,72.66000000000001,7.206808823529408,10.424247803186866,72.66000000000001,0.17966515000000008,0.05873673014515791,0.25788,0.17966515000000008,0.05873673014515791,0.25788,0.17966515000000008,0.05873673014515791,0.25788
1,Neck,20,3,No Fall,0.9554590445378136,0.11539846892414234,0.841312,0.9554590445378136,0.11539846892414234,0.841312,0.9554590445378136,0.11539846892414234,0.841312,5.292294117647064,5.824693168222419,34.370000000000005,5.292294117647064,5.824693168222419,34.370000000000005,5.292294117647064,5.824693168222419,34.370000000000005,0.16703785000000024,0.04247785862862611,0.22876,0.16703785000000024,0.04247785862862611,0.22876,0.16703785000000024,0.04247785862862611,0.22876
1,Neck,20,4,No Fall,0.9551402554621848,0.16796722606333633,1.033096,0.9551402554621848,0.16796722606333633,1.033096,0.9551402554621848,0.16796722606333633,1.033096,4.935558823529411,10.111816454295699,80.99000000000001,4.935558823529411,10.111816454295699,80.99000000000001,4.935558823529411,10.111816454295699,80.99000000000001,0.19532975000000022,0.06672805385795236,0.26389999999999997,0.19532975000000022,0.06672805385795236,0.26389999999999997,0.19532975000000022,0.06672805385795236,0.26389999999999997
1,Neck,21,1,No Fall,0.9427347008403367,0.05856868573059238,0.48287599999999986,0.9427347008403367,0.05856868573059238,0.48287599999999986,0.9427347008403367,0.05856868573059238,0.48287599999999986,7.176132352941205,7.19621034341739,59.290000000000006,7.176132352941205,7.19621034341739,59.290000000000006,7.176132352941205,7.19621034341739,59.290000000000006,0.11358226249999998,0.10525806439511515,0.35056,0.11358226249999998,0.10525806439511515,0.35056,0.11358226249999998,0.10525806439511515,0.35056
1,Neck,21,2,No Fall,0.9492123882352951,0.09063850889643023,0.8730319999999999,0.9492123882352951,0.09063850889643023,0.8730319999999999,0.9492123882352951,0.09063850889643023,0.8730319999999999,7.151588235294116,9.469708351054555,87.08000000000001,7.151588235294116,9.469708351054555,87.08000000000001,7.151588235294116,9.469708351054555,87.08000000000001,0.0827140125,0.09552019763378491,0.31234,0.0827140125,0.09552019763378491,0.31234,0.0827140125,0.09552019763378491,0.31234
1,Neck,21,3,No Fall,0.9471431554621834,0.08273860465642947,0.768844,0.9471431554621834,0.08273860465642947,0.768844,0.9471431554621834,0.08273860465642947,0.768844,4.639352941176462,4.137016597300688,30.870000000000005,4.639352941176462,4.137016597300688,30.870000000000005,4.639352941176462,4.137016597300688,30.870000000000005,-0.003259899999999948,0.08202996481130771,0.24023999999999998,-0.003259899999999948,0.08202996481130771,0.24023999999999998,-0.003259899999999948,0.08202996481130771,0.24023999999999998
1,Neck,21,4,No Fall,0.9573577848739513,0.11917066288374556,0.900848,0.9573577848739513,0.11917066288374556,0.900848,0.9573577848739513,0.11917066288374556,0.900848,5.395588235294115,6.523420887721801,50.89000000000001,5.395588235294115,6.523420887721801,50.89000000000001,5.395588235294115,6.523420887721801,50.89000000000001,0.07576887500000001,0.032701753877675245,0.14237999999999998,0.07576887500000001,0.032701753877675245,0.14237999999999998,0.07576887500000001,0.032701753877675245,0.14237999999999998
1,Neck,21,5,No Fall,0.9516134302521002,0.09892491512743234,0.8037360000000001,0.9516134302521002,0.09892491512743234,0.8037360000000001,0.9516134302521002,0.09892491512743234,0.8037360000000001,5.507558823529414,5.422975765702471,39.27,5.507558823529414,5.422975765702471,39.27,5.507558823529414,5.422975765702471,39.27,0.09527988749999997,0.02999668670029183,0.11746000000000001,0.09527988749999997,0.02999668670029183,0.11746000000000001,0.09527988749999997,0.02999668670029183,0.11746000000000001
1,Neck,22,1,No Fall,0.9599256798319301,0.22928130179665782,1.197552,0.9599256798319301,0.22928130179665782,1.197552,0.9599256798319301,0.22928130179665782,1.197552,7.2030294117647085,13.990788593902668,102.27000000000001,7.2030294117647085,13.990788593902668,102.27000000000001,7.2030294117647085,13.990788593902668,102.27000000000001,0.1123212125000001,0.10963734538454123,0.43931999999999993,0.1123212125000001,0.10963734538454123,0.43931999999999993,0.1123212125000001,0.10963734538454123,0.43931999999999993
1,Neck,22,2,No Fall,0.9620577579831939,0.2512685622860354,1.2724600000000001,0.9620577579831939,0.2512685622860354,1.2724600000000001,0.9620577579831939,0.2512685622860354,1.2724600000000001,5.7034852941176615,13.848921490524749,101.57000000000001,5.7034852941176615,13.848921490524749,101.57000000000001,5.7034852941176615,13.848921490524749,101.57000000000001,0.1680016624999999,0.05823603262303235,0.24625999999999998,0.1680016624999999,0.05823603262303235,0.24625999999999998,0.1680016624999999,0.05823603262303235,0.24625999999999998
1,Neck,22,3,No Fall,0.959514057983196,0.25457617952604505,1.24806,0.959514057983196,0.25457617952604505,1.24806,0.959514057983196,0.25457617952604505,1.24806,5.409014705882346,14.617568760557639,97.30000000000001,5.409014705882346,14.617568760557639,97.30000000000001,5.409014705882346,14.617568760557639,97.30000000000001,0.07522707499999996,0.06468838169368767,0.27846,0.07522707499999996,0.06468838169368767,0.27846,0.07522707499999996,0.06468838169368767,0.27846
1,Neck,23,1,No Fall,0.9614097226890733,0.30717203948403354,4.325876,0.9614097226890733,0.30717203948403354,4.325876,0.9614097226890733,0.30717203948403354,4.325876,5.834985294117652,36.376249856815896,687.96,5.834985294117652,36.376249856815896,687.96,5.834985294117652,36.376249856815896,687.96,0.10642344999999999,0.08854124266623183,0.44253999999999993,0.10642344999999999,0.08854124266623183,0.44253999999999993,0.10642344999999999,0.08854124266623183,0.44253999999999993
1,Neck,25,1,No Fall,0.9649157361344513,0.9754100235464532,4.5793919999999995,0.9649157361344513,0.9754100235464532,4.5793919999999995,0.9649157361344513,0.9754100235464532,4.5793919999999995,3.565823529411769,35.634720892540415,427.4200000000001,3.565823529411769,35.634720892540415,427.4200000000001,3.565823529411769,35.634720892540415,427.4200000000001,0.17192034999999975,0.06739725201270666,0.40879999999999994,0.17192034999999975,0.06739725201270666,0.40879999999999994,0.17192034999999975,0.06739725201270666,0.40879999999999994
1,Neck,25,3,No Fall,0.9723388210084016,1.0827558011726581,5.70838,0.9723388210084016,1.0827558011726581,5.70838,0.9723388210084016,1.0827558011726581,5.70838,4.942161764705888,48.366682120739426,519.33,4.942161764705888,48.366682120739426,519.33,4.942161764705888,48.366682120739426,519.33,0.16249134999999965,0.09008495753960157,0.47137999999999997,0.16249134999999965,0.09008495753960157,0.47137999999999997,0.16249134999999965,0.09008495753960157,0.47137999999999997
1,Neck,26,1,No Fall,0.9386122285714266,0.22027191959765566,3.783464,0.9386122285714266,0.22027191959765566,3.783464,0.9386122285714266,0.22027191959765566,3.783464,5.146529411764731,9.19575756475345,239.61,5.146529411764731,9.19575756475345,239.61,5.146529411764731,9.19575756475345,239.61,0.09447357499999981,0.01586218696551506,0.10597999999999999,0.09447357499999981,0.01586218696551506,0.10597999999999999,0.09447357499999981,0.01586218696551506,0.10597999999999999
1,Neck,26,2,No Fall,0.9610102495798332,0.21513249494283765,4.0748,0.9610102495798332,0.21513249494283765,4.0748,0.9610102495798332,0.21513249494283765,4.0748,5.5207941176470605,13.429110630013447,392.21000000000004,5.5207941176470605,13.429110630013447,392.21000000000004,5.5207941176470605,13.429110630013447,392.21000000000004,0.12910773749999982,0.0895394119078805,0.33557999999999993,0.12910773749999982,0.0895394119078805,0.33557999999999993,0.12910773749999982,0.0895394119078805,0.33557999999999993
1,Neck,26,3,No Fall,0.9380701999999982,0.18915493620770038,3.334504,0.9380701999999982,0.18915493620770038,3.334504,0.9380701999999982,0.18915493620770038,3.334504,5.655999999999993,13.052924010496122,321.16,5.655999999999993,13.052924010496122,321.16,5.655999999999993,13.052924010496122,321.16,0.092869525,0.024182825691715558,0.15582,0.092869525,0.024182825691715558,0.15582,0.092869525,0.024182825691715558,0.15582
1,Neck,26,4,No Fall,0.9537052689075639,0.20867078844513873,3.229584,0.9537052689075639,0.20867078844513873,3.229584,0.9537052689075639,0.20867078844513873,3.229584,9.011661764705861,12.549686641022708,253.26000000000002,9.011661764705861,12.549686641022708,253.26000000000002,9.011661764705861,12.549686641022708,253.26000000000002,0.10787332500000009,0.08137760744403344,0.34258,0.10787332500000009,0.08137760744403344,0.34258,0.10787332500000009,0.08137760744403344,0.34258
1,Neck,27,1,No Fall,0.933195377310924,0.24612735798147636,4.695048,0.933195377310924,0.24612735798147636,4.695048,0.933195377310924,0.24612735798147636,4.695048,5.398852941176484,10.843064774109466,201.95000000000002,5.398852941176484,10.843064774109466,201.95000000000002,5.398852941176484,10.843064774109466,201.95000000000002,0.07650194999999999,0.01732099245669263,0.14252,0.07650194999999999,0.01732099245669263,0.14252,0.07650194999999999,0.01732099245669263,0.14252
1,Neck,27,2,No Fall,0.958964289075631,0.2610840065360808,5.057875999999999,0.958964289075631,0.2610840065360808,5.057875999999999,0.958964289075631,0.2610840065360808,5.057875999999999,6.71870588235295,16.235563446008992,249.48000000000002,6.71870588235295,16.235563446008992,249.48000000000002,6.71870588235295,16.235563446008992,249.48000000000002,0.11016276250000002,0.1305513408241677,0.41972,0.11016276250000002,0.1305513408241677,0.41972,0.11016276250000002,0.1305513408241677,0.41972
1,Neck,27,3,No Fall,0.9344252705882331,0.2874203225892469,5.518304,0.9344252705882331,0.2874203225892469,5.518304,0.9344252705882331,0.2874203225892469,5.518304,5.351691176470584,16.225531254335046,319.69000000000005,5.351691176470584,16.225531254335046,319.69000000000005,5.351691176470584,16.225531254335046,319.69000000000005,0.0982218999999999,0.02686760003884611,0.19697999999999996,0.0982218999999999,0.02686760003884611,0.19697999999999996,0.0982218999999999,0.02686760003884611,0.19697999999999996
1,Neck,27,4,No Fall,0.9564243823529447,0.2992453930437295,5.906996,0.9564243823529447,0.2992453930437295,5.906996,0.9564243823529447,0.2992453930437295,5.906996,6.549102941176457,16.662110345767186,432.46000000000004,6.549102941176457,16.662110345767186,432.46000000000004,6.549102941176457,16.662110345767186,432.46000000000004,0.12772086249999987,0.08549882014484131,0.33375999999999995,0.12772086249999987,0.08549882014484131,0.33375999999999995,0.12772086249999987,0.08549882014484131,0.33375999999999995
1,Neck,28,1,No Fall,0.8564036563025235,0.22450762737026836,0.96746,0.8564036563025235,0.22450762737026836,0.96746,0.8564036563025235,0.22450762737026836,0.96746,5.325867647058796,23.835607570110636,271.04,5.325867647058796,23.835607570110636,271.04,5.325867647058796,23.835607570110636,271.04,0.13740203749999977,0.11332227507805609,0.39424,0.13740203749999977,0.11332227507805609,0.39424,0.13740203749999977,0.11332227507805609,0.39424
1,Neck,28,2,No Fall,0.897542158823527,0.19653822228083184,1.202188,0.897542158823527,0.19653822228083184,1.202188,0.897542158823527,0.19653822228083184,1.202188,6.542970588235299,27.41375696274278,263.55,6.542970588235299,27.41375696274278,263.55,6.542970588235299,27.41375696274278,263.55,0.12381118749999986,0.17428475954159073,0.5784799999999999,0.12381118749999986,0.17428475954159073,0.5784799999999999,0.12381118749999986,0.17428475954159073,0.5784799999999999
1,Neck,28,3,No Fall,0.8889153235294115,0.13065389935447513,1.366156,0.8889153235294115,0.13065389935447513,1.366156,0.8889153235294115,0.13065389935447513,1.366156,5.27182352941177,21.891201724870534,246.89000000000001,5.27182352941177,21.891201724870534,246.89000000000001,5.27182352941177,21.891201724870534,246.89000000000001,0.1360547999999999,0.13476254227421702,0.51016,0.1360547999999999,0.13476254227421702,0.51016,0.1360547999999999,0.13476254227421702,0.51016
1,Neck,28,4,No Fall,0.9167407042016786,0.14067519921284385,0.770796,0.9167407042016786,0.14067519921284385,0.770796,0.9167407042016786,0.14067519921284385,0.770796,5.132926470588224,19.8968974264278,202.79000000000002,5.132926470588224,19.8968974264278,202.79000000000002,5.132926470588224,19.8968974264278,202.79000000000002,0.13561432500000006,0.11263625598645424,0.46802,0.13561432500000006,0.11263625598645424,0.46802,0.13561432500000006,0.11263625598645424,0.46802
1,Neck,29,1,No Fall,0.9549657647058819,0.10788671888410628,0.7329760000000001,0.9549657647058819,0.10788671888410628,0.7329760000000001,0.9549657647058819,0.10788671888410628,0.7329760000000001,5.848808823529391,5.079822875941767,42.28,5.848808823529391,5.079822875941767,42.28,5.848808823529391,5.079822875941767,42.28,0.17023370000000018,0.03732107903916908,0.14895999999999998,0.17023370000000018,0.03732107903916908,0.14895999999999998,0.17023370000000018,0.03732107903916908,0.14895999999999998
1,Neck,29,2,No Fall,0.9628551151260498,0.12533382610191143,0.9635559999999999,0.9628551151260498,0.12533382610191143,0.9635559999999999,0.9628551151260498,0.12533382610191143,0.9635559999999999,6.445367647058839,6.908951588500343,80.22,6.445367647058839,6.908951588500343,80.22,6.445367647058839,6.908951588500343,80.22,0.16528531249999998,0.060792217331516976,0.24079999999999996,0.16528531249999998,0.060792217331516976,0.24079999999999996,0.16528531249999998,0.060792217331516976,0.24079999999999996
1,Neck,30,1,No Fall,0.954686036134455,0.14819784492529353,0.8925520000000001,0.954686036134455,0.14819784492529353,0.8925520000000001,0.954686036134455,0.14819784492529353,0.8925520000000001,4.386382352941171,8.23850379366107,67.97,4.386382352941171,8.23850379366107,67.97,4.386382352941171,8.23850379366107,67.97,0.2567785500000003,0.07670771115077836,0.35322,0.2567785500000003,0.07670771115077836,0.35322,0.2567785500000003,0.07670771115077836,0.35322
1,Neck,30,2,No Fall,0.9522918630252144,0.1772069342053641,1.095072,0.9522918630252144,0.1772069342053641,1.095072,0.9522918630252144,0.1772069342053641,1.095072,5.899073529411763,9.183677934827957,87.15,5.899073529411763,9.183677934827957,87.15,5.899073529411763,9.183677934827957,87.15,0.23788485000000037,0.08388069373053281,0.39899999999999997,0.23788485000000037,0.08388069373053281,0.39899999999999997,0.23788485000000037,0.08388069373053281,0.39899999999999997
1,Neck,31,1,No Fall,0.9588424428571442,0.09655907121533105,0.74786,0.9588424428571442,0.09655907121533105,0.74786,0.9588424428571442,0.09655907121533105,0.74786,4.995147058823529,5.452009226073388,36.68000000000001,4.995147058823529,5.452009226073388,36.68000000000001,4.995147058823529,5.452009226073388,36.68000000000001,0.24769832499999966,0.05608857648801723,0.27902,0.24769832499999966,0.05608857648801723,0.27902,0.24769832499999966,0.05608857648801723,0.27902
1,Neck,31,2,No Fall,0.9602487235294107,0.13810364616919854,1.0431,0.9602487235294107,0.13810364616919854,1.0431,0.9602487235294107,0.13810364616919854,1.0431,4.933632352941183,7.608178544997581,80.78,4.933632352941183,7.608178544997581,80.78,4.933632352941183,7.608178544997581,80.78,0.21849047499999988,0.08742264481552224,0.31849999999999995,0.21849047499999988,0.08742264481552224,0.31849999999999995,0.21849047499999988,0.08742264481552224,0.31849999999999995
1,Neck,32,1,No Fall,0.969730891596639,0.10326177431992911,0.9642879999999999,0.969730891596639,0.10326177431992911,0.9642879999999999,0.969730891596639,0.10326177431992911,0.9642879999999999,5.972058823529411,9.667649543919156,94.22,5.972058823529411,9.667649543919156,94.22,5.972058823529411,9.667649543919156,94.22,0.25384677499999947,0.038760050484298154,0.21699999999999994,0.25384677499999947,0.038760050484298154,0.21699999999999994,0.25384677499999947,0.038760050484298154,0.21699999999999994
1,Neck,32,2,No Fall,0.9738620781512614,0.14279086677980898,1.194136,0.9738620781512614,0.14279086677980898,1.194136,0.9738620781512614,0.14279086677980898,1.194136,6.110367647058813,11.47629920054055,125.51000000000002,6.110367647058813,11.47629920054055,125.51000000000002,6.110367647058813,11.47629920054055,125.51000000000002,0.12603849999999972,0.03235843998323843,0.16127999999999998,0.12603849999999972,0.03235843998323843,0.16127999999999998,0.12603849999999972,0.03235843998323843,0.16127999999999998
1,Neck,33,1,No Fall,0.9666976537815107,0.14826115365252704,0.9240280000000001,0.9666976537815107,0.14826115365252704,0.9240280000000001,0.9666976537815107,0.14826115365252704,0.9240280000000001,7.43310294117646,12.36530850046764,111.72,7.43310294117646,12.36530850046764,111.72,7.43310294117646,12.36530850046764,111.72,0.1690224375,0.10007247188701325,0.35769999999999996,0.1690224375,0.10007247188701325,0.35769999999999996,0.1690224375,0.10007247188701325,0.35769999999999996
1,Neck,33,2,No Fall,0.9710444420168055,0.18380633970000224,1.141188,0.9710444420168055,0.18380633970000224,1.141188,0.9710444420168055,0.18380633970000224,1.141188,6.512647058823548,13.465105880403206,135.8,6.512647058823548,13.465105880403206,135.8,6.512647058823548,13.465105880403206,135.8,0.2010320375,0.07081485832046791,0.31779999999999997,0.2010320375,0.07081485832046791,0.31779999999999997,0.2010320375,0.07081485832046791,0.31779999999999997
1,Neck,34,1,No Fall,0.9703057268907568,0.1141879837790602,0.9857599999999999,0.9703057268907568,0.1141879837790602,0.9857599999999999,0.9703057268907568,0.1141879837790602,0.9857599999999999,6.458117647058807,10.348720880220785,106.26,6.458117647058807,10.348720880220785,106.26,6.458117647058807,10.348720880220785,106.26,0.18231578749999994,0.09668197965364819,0.41174,0.18231578749999994,0.09668197965364819,0.41174,0.18231578749999994,0.09668197965364819,0.41174
1,Neck,34,2,No Fall,0.9726039915966387,0.11835953385621413,0.940864,0.9726039915966387,0.11835953385621413,0.940864,0.9726039915966387,0.11835953385621413,0.940864,6.312411764705852,9.522431231393444,81.41000000000001,6.312411764705852,9.522431231393444,81.41000000000001,6.312411764705852,9.522431231393444,81.41000000000001,0.18160345000000022,0.07059906387825053,0.30379999999999996,0.18160345000000022,0.07059906387825053,0.30379999999999996,0.18160345000000022,0.07059906387825053,0.30379999999999996
1,Neck,35,1,No Fall,0.9429552747899151,0.42357195060841724,2.580788,0.9429552747899151,0.42357195060841724,2.580788,0.9429552747899151,0.42357195060841724,2.580788,4.909455882352939,36.39197172320649,403.9000000000001,4.909455882352939,36.39197172320649,403.9000000000001,4.909455882352939,36.39197172320649,403.9000000000001,0.25647614999999974,0.08212411256654786,0.33361999999999997,0.25647614999999974,0.08212411256654786,0.33361999999999997,0.25647614999999974,0.08212411256654786,0.33361999999999997
1,Neck,35,2,No Fall,0.9454489445378155,0.5166661926651138,3.2351959999999997,0.9454489445378155,0.5166661926651138,3.2351959999999997,0.9454489445378155,0.5166661926651138,3.2351959999999997,5.0262205882353035,46.0743629337814,472.01000000000005,5.0262205882353035,46.0743629337814,472.01000000000005,5.0262205882353035,46.0743629337814,472.01000000000005,0.25340122499999995,0.08618242605136753,0.36484,0.25340122499999995,0.08618242605136753,0.36484,0.25340122499999995,0.08618242605136753,0.36484
1,Neck,36,1,No Fall,0.9575966588235285,0.5902537863623588,3.0841600000000002,0.9575966588235285,0.5902537863623588,3.0841600000000002,0.9575966588235285,0.5902537863623588,3.0841600000000002,7.2036617647058705,40.094359528443675,412.86,7.2036617647058705,40.094359528443675,412.86,7.2036617647058705,40.094359528443675,412.86,0.21252988750000001,0.09140002528651907,0.37366,0.21252988750000001,0.09140002528651907,0.37366,0.21252988750000001,0.09140002528651907,0.37366
1,Neck,36,2,No Fall,0.9709832369747919,0.5787482901233771,3.28668,0.9709832369747919,0.5787482901233771,3.28668,0.9709832369747919,0.5787482901233771,3.28668,7.051764705882352,37.11460289950001,332.22,7.051764705882352,37.11460289950001,332.22,7.051764705882352,37.11460289950001,332.22,0.21257906249999986,0.08532907118833977,0.37044,0.21257906249999986,0.08532907118833977,0.37044,0.21257906249999986,0.08532907118833977,0.37044
1,Neck,37,1,No Fall,0.975273023529411,0.026287362591422156,0.18934400000000007,0.975273023529411,0.026287362591422156,0.18934400000000007,0.975273023529411,0.026287362591422156,0.18934400000000007,5.465514705882369,3.355669317183892,28.840000000000003,5.465514705882369,3.355669317183892,28.840000000000003,5.465514705882369,3.355669317183892,28.840000000000003,0.13760424999999984,0.01927370223091697,0.10065999999999999,0.13760424999999984,0.01927370223091697,0.10065999999999999,0.13760424999999984,0.01927370223091697,0.10065999999999999
1,Neck,37,2,No Fall,0.9696418521008396,0.029802391143865636,0.32476400000000005,0.9696418521008396,0.029802391143865636,0.32476400000000005,0.9696418521008396,0.029802391143865636,0.32476400000000005,5.1153823529411655,3.8093143359465533,35.63,5.1153823529411655,3.8093143359465533,35.63,5.1153823529411655,3.8093143359465533,35.63,0.15562163750000005,0.01207978943894096,0.07588,0.15562163750000005,0.01207978943894096,0.07588,0.15562163750000005,0.01207978943894096,0.07588
1,Neck,38,1,No Fall,0.9658950680672291,0.04710511399223505,0.728828,0.9658950680672291,0.04710511399223505,0.728828,0.9658950680672291,0.04710511399223505,0.728828,6.003367647058798,6.46222625486548,64.61,6.003367647058798,6.46222625486548,64.61,6.003367647058798,6.46222625486548,64.61,0.12014677500000003,0.03846043462109993,0.24023999999999998,0.12014677500000003,0.03846043462109993,0.24023999999999998,0.12014677500000003,0.03846043462109993,0.24023999999999998
1,Neck,38,2,No Fall,0.9617474781512617,0.0448617398222181,0.8283799999999999,0.9617474781512617,0.0448617398222181,0.8283799999999999,0.9617474781512617,0.0448617398222181,0.8283799999999999,6.921632352941159,8.56785213647689,127.75000000000001,6.921632352941159,8.56785213647689,127.75000000000001,6.921632352941159,8.56785213647689,127.75000000000001,0.1294523999999998,0.025488445956713495,0.13663999999999998,0.1294523999999998,0.025488445956713495,0.13663999999999998,0.1294523999999998,0.025488445956713495,0.13663999999999998
1,Neck,39,1,No Fall,0.9607092478991566,0.0397139818575844,0.4594520000000001,0.9607092478991566,0.0397139818575844,0.4594520000000001,0.9607092478991566,0.0397139818575844,0.4594520000000001,5.17066176470588,6.087441732026352,83.09,5.17066176470588,6.087441732026352,83.09,5.17066176470588,6.087441732026352,83.09,0.14276438749999992,0.019983863146079726,0.11801999999999999,0.14276438749999992,0.019983863146079726,0.11801999999999999,0.14276438749999992,0.019983863146079726,0.11801999999999999
1,Neck,39,2,No Fall,0.9654725277310899,0.04718859886845993,0.8283799999999999,0.9654725277310899,0.04718859886845993,0.8283799999999999,0.9654725277310899,0.04718859886845993,0.8283799999999999,5.913573529411772,7.896241720484186,127.75000000000001,5.913573529411772,7.896241720484186,127.75000000000001,5.913573529411772,7.896241720484186,127.75000000000001,0.1346816625000001,0.026306332972454202,0.14251999999999998,0.1346816625000001,0.026306332972454202,0.14251999999999998,0.1346816625000001,0.026306332972454202,0.14251999999999998
1,Neck,40,1,No Fall,0.9759524302520993,0.06669522083686048,0.976488,0.9759524302520993,0.06669522083686048,0.976488,0.9759524302520993,0.06669522083686048,0.976488,5.528044117647048,6.229661707902056,91.35000000000001,5.528044117647048,6.229661707902056,91.35000000000001,5.528044117647048,6.229661707902056,91.35000000000001,0.14281242500000016,0.024599168004954153,0.11801999999999997,0.14281242500000016,0.024599168004954153,0.11801999999999997,0.14281242500000016,0.024599168004954153,0.11801999999999997
1,Neck,40,2,No Fall,0.9721888840336143,0.041805978574972404,0.5953599999999999,0.9721888840336143,0.041805978574972404,0.5953599999999999,0.9721888840336143,0.041805978574972404,0.5953599999999999,6.187088235294116,7.302115235877716,100.66,6.187088235294116,7.302115235877716,100.66,6.187088235294116,7.302115235877716,100.66,0.11459875000000026,0.05389089203279213,0.22469999999999998,0.11459875000000026,0.05389089203279213,0.22469999999999998,0.11459875000000026,0.05389089203279213,0.22469999999999998
1,Neck,43,1,No Fall,0.9673178546218486,0.6828939637434452,4.501556,0.9673178546218486,0.6828939637434452,4.501556,0.9673178546218486,0.6828939637434452,4.501556,5.986735294117641,26.808822259249435,289.87,5.986735294117641,26.808822259249435,289.87,5.986735294117641,26.808822259249435,289.87,0.16000739999999994,0.036557901736178657,0.27355999999999997,0.16000739999999994,0.036557901736178657,0.27355999999999997,0.16000739999999994,0.036557901736178657,0.27355999999999997
1,Neck,43,2,No Fall,0.9626357714285708,0.6734739051875592,4.635512,0.9626357714285708,0.6734739051875592,4.635512,0.9626357714285708,0.6734739051875592,4.635512,5.944397058823551,29.42502473011077,511.3500000000001,5.944397058823551,29.42502473011077,511.3500000000001,5.944397058823551,29.42502473011077,511.3500000000001,0.1297715999999996,0.05336951905739604,0.29918,0.1297715999999996,0.05336951905739604,0.29918,0.1297715999999996,0.05336951905739604,0.29918
1,Neck,43,3,No Fall,0.9626883647058811,0.6768732156101619,4.598668,0.9626883647058811,0.6768732156101619,4.598668,0.9626883647058811,0.6768732156101619,4.598668,4.567691176470593,28.6434655762846,420.77000000000004,4.567691176470593,28.6434655762846,420.77000000000004,4.567691176470593,28.6434655762846,420.77000000000004,0.13001283749999987,0.0922187776556043,0.34635999999999995,0.13001283749999987,0.0922187776556043,0.34635999999999995,0.13001283749999987,0.0922187776556043,0.34635999999999995
1,Neck,44,1,No Fall,0.9689731588235294,0.6123968580100737,4.305136,0.9689731588235294,0.6123968580100737,4.305136,0.9689731588235294,0.6123968580100737,4.305136,5.068794117647038,23.00612510179996,250.74000000000004,5.068794117647038,23.00612510179996,250.74000000000004,5.068794117647038,23.00612510179996,250.74000000000004,0.22435350000000018,0.08545894324242823,0.294,0.22435350000000018,0.08545894324242823,0.294,0.22435350000000018,0.08545894324242823,0.294
1,Neck,101,1,Fall,0.6878391268907551,0.28731228802801745,3.832264,0.6878391268907551,0.28731228802801745,3.832264,0.6878391268907551,0.28731228802801745,3.832264,9.653279411764744,24.525006509617477,464.73,9.653279411764744,24.525006509617477,464.73,9.653279411764744,24.525006509617477,464.73,0.3164004375000002,0.16340529857936345,0.49041999999999997,0.3164004375000002,0.16340529857936345,0.49041999999999997,0.3164004375000002,0.16340529857936345,0.49041999999999997
1,Neck,101,2,Fall,0.4089523042016777,0.581490881771231,5.502199999999999,0.4089523042016777,0.581490881771231,5.502199999999999,0.4089523042016777,0.581490881771231,5.502199999999999,9.960441176470267,34.02130057058194,475.09000000000003,9.960441176470267,34.02130057058194,475.09000000000003,9.960441176470267,34.02130057058194,475.09000000000003,-0.02805241249999996,0.19014928836863076,0.7512399999999999,-0.02805241249999996,0.19014928836863076,0.7512399999999999,-0.02805241249999996,0.19014928836863076,0.7512399999999999
1,Neck,101,3,Fall,0.6682910873949549,0.321718592929131,4.393464,0.6682910873949549,0.321718592929131,4.393464,0.6682910873949549,0.321718592929131,4.393464,8.98097058823562,29.426499733321,440.58000000000004,8.98097058823562,29.426499733321,440.58000000000004,8.98097058823562,29.426499733321,440.58000000000004,0.3982042749999998,0.15576808764612216,0.37842,0.3982042749999998,0.15576808764612216,0.37842,0.3982042749999998,0.15576808764612216,0.37842
1,Neck,102,2,Fall,0.7163153109243693,0.41618434138127586,5.35458,0.7163153109243693,0.41618434138127586,5.35458,0.7163153109243693,0.41618434138127586,5.35458,5.841764705882341,40.57470145790461,445.9000000000001,5.841764705882341,40.57470145790461,445.9000000000001,5.841764705882341,40.57470145790461,445.9000000000001,0.2757587875,0.15877205145579618,0.51478,0.2757587875,0.15877205145579618,0.51478,0.2757587875,0.15877205145579618,0.51478
1,Neck,102,3,Fall,0.7550536428571427,0.39328156953697696,9.729011999999999,0.7550536428571427,0.39328156953697696,9.729011999999999,0.7550536428571427,0.39328156953697696,9.729011999999999,6.253426470588202,36.15670027922628,710.8500000000001,6.253426470588202,36.15670027922628,710.8500000000001,6.253426470588202,36.15670027922628,710.8500000000001,0.3318949375000001,0.1323338331294771,0.399,0.3318949375000001,0.1323338331294771,0.399,0.3318949375000001,0.1323338331294771,0.399
1,Neck,103,1,Fall,0.5904780008403341,0.4084562497510718,8.794492,0.5904780008403341,0.4084562497510718,8.794492,0.5904780008403341,0.4084562497510718,8.794492,11.455764705882485,33.70855803455807,676.5500000000001,11.455764705882485,33.70855803455807,676.5500000000001,11.455764705882485,33.70855803455807,676.5500000000001,0.36471811250000014,0.19214797377432408,0.5404,0.36471811250000014,0.19214797377432408,0.5404,0.36471811250000014,0.19214797377432408,0.5404
1,Neck,103,2,Fall,0.41006383697479154,0.5262430470386007,2.5212519999999996,0.41006383697479154,0.5262430470386007,2.5212519999999996,0.41006383697479154,0.5262430470386007,2.5212519999999996,10.156970588235403,31.61904394923903,547.2600000000001,10.156970588235403,31.61904394923903,547.2600000000001,10.156970588235403,31.61904394923903,547.2600000000001,0.3405504374999998,0.17090367537949558,0.4438,0.3405504374999998,0.17090367537949558,0.4438,0.3405504374999998,0.17090367537949558,0.4438
1,Neck,104,1,Fall,0.6129389184873947,0.440536209356526,3.3484119999999997,0.6129389184873947,0.440536209356526,3.3484119999999997,0.6129389184873947,0.440536209356526,3.3484119999999997,6.164779411764695,44.890426753529354,850.1500000000001,6.164779411764695,44.890426753529354,850.1500000000001,6.164779411764695,44.890426753529354,850.1500000000001,0.33663568750000006,0.18643010288762793,0.5079199999999999,0.33663568750000006,0.18643010288762793,0.5079199999999999,0.33663568750000006,0.18643010288762793,0.5079199999999999
1,Neck,104,2,Fall,0.7739856336134479,0.30652555068263476,2.8020959999999997,0.7739856336134479,0.30652555068263476,2.8020959999999997,0.7739856336134479,0.30652555068263476,2.8020959999999997,4.870676470588245,41.17527131795408,686.84,4.870676470588245,41.17527131795408,686.84,4.870676470588245,41.17527131795408,686.84,0.29556047500000004,0.16988035911202887,0.48677999999999993,0.29556047500000004,0.16988035911202887,0.48677999999999993,0.29556047500000004,0.16988035911202887,0.48677999999999993
1,Neck,105,1,Fall,0.4117491798319335,0.5328537662888645,2.654476,0.4117491798319335,0.5328537662888645,2.654476,0.4117491798319335,0.5328537662888645,2.654476,7.738676470587968,32.483143080364435,551.74,7.738676470587968,32.483143080364435,551.74,7.738676470587968,32.483143080364435,551.74,0.18017142500000002,0.10018855965202604,0.5325599999999999,0.18017142500000002,0.10018855965202604,0.5325599999999999,0.18017142500000002,0.10018855965202604,0.5325599999999999
1,Neck,105,2,Fall,0.5367345403361323,0.41381639552343236,2.210152,0.5367345403361323,0.41381639552343236,2.210152,0.5367345403361323,0.41381639552343236,2.210152,8.056014705882262,33.1999894901053,478.80000000000007,8.056014705882262,33.1999894901053,478.80000000000007,8.056014705882262,33.1999894901053,478.80000000000007,0.03117423749999992,0.17264645863684394,0.64554,0.03117423749999992,0.17264645863684394,0.64554,0.03117423749999992,0.17264645863684394,0.64554
1,Neck,105,3,Fall,0.470504072268907,0.4218547388127275,2.264808,0.470504072268907,0.4218547388127275,2.264808,0.470504072268907,0.4218547388127275,2.264808,7.080544117646973,32.0690235678815,704.34,7.080544117646973,32.0690235678815,704.34,7.080544117646973,32.0690235678815,704.34,0.33737383750000016,0.1570793230149907,0.48482,0.33737383750000016,0.1570793230149907,0.48482,0.33737383750000016,0.1570793230149907,0.48482
1,Neck,105,4,Fall,0.3679783991596621,0.5485408249125239,4.001112,0.3679783991596621,0.5485408249125239,4.001112,0.3679783991596621,0.5485408249125239,4.001112,8.233926470588434,26.356339182655898,631.19,8.233926470588434,26.356339182655898,631.19,8.233926470588434,26.356339182655898,631.19,0.3598097125000001,0.10464444950127305,0.32087999999999994,0.3598097125000001,0.10464444950127305,0.32087999999999994,0.3598097125000001,0.10464444950127305,0.32087999999999994
1,Neck,106,1,Fall,0.8190269571428559,0.2801356513582651,2.193072,0.8190269571428559,0.2801356513582651,2.193072,0.8190269571428559,0.2801356513582651,2.193072,5.771058823529388,39.55063810276253,584.71,5.771058823529388,39.55063810276253,584.71,5.771058823529388,39.55063810276253,584.71,0.22049553749999976,0.11139509140365703,0.5145,0.22049553749999976,0.11139509140365703,0.5145,0.22049553749999976,0.11139509140365703,0.5145
1,Neck,106,3,Fall,0.7252671890756327,0.37171234250767526,3.237392,0.7252671890756327,0.37171234250767526,3.237392,0.7252671890756327,0.37171234250767526,3.237392,3.625970588235294,37.74952671327483,509.88000000000005,3.625970588235294,37.74952671327483,509.88000000000005,3.625970588235294,37.74952671327483,509.88000000000005,0.23038277499999996,0.16201127292304596,0.6706,0.23038277499999996,0.16201127292304596,0.6706,0.23038277499999996,0.16201127292304596,0.6706
1,Neck,107,1,Fall,0.43198041932773096,0.5869905154669879,7.3622119999999995,0.43198041932773096,0.5869905154669879,7.3622119999999995,0.43198041932773096,0.5869905154669879,7.3622119999999995,2.1294264705882355,38.524395710688665,647.5000000000001,2.1294264705882355,38.524395710688665,647.5000000000001,2.1294264705882355,38.524395710688665,647.5000000000001,0.018058075000000184,0.18276240689116627,0.6071799999999999,0.018058075000000184,0.18276240689116627,0.6071799999999999,0.018058075000000184,0.18276240689116627,0.6071799999999999
1,Neck,107,2,Fall,0.4047894386554627,0.5881834196960863,6.933015999999999,0.4047894386554627,0.5881834196960863,6.933015999999999,0.4047894386554627,0.5881834196960863,6.933015999999999,-0.019720588235290056,32.4981506698325,627.76,-0.019720588235290056,32.4981506698325,627.76,-0.019720588235290056,32.4981506698325,627.76,-0.00966656249999991,0.17159526290107754,0.5486599999999999,-0.00966656249999991,0.17159526290107754,0.5486599999999999,-0.00966656249999991,0.17159526290107754,0.5486599999999999
1,Neck,107,3,Fall,0.4082363487394952,0.5764601555495413,5.954331999999999,0.4082363487394952,0.5764601555495413,5.954331999999999,0.4082363487394952,0.5764601555495413,5.954331999999999,0.78120588235294,46.550410069039884,696.4300000000001,0.78120588235294,46.550410069039884,696.4300000000001,0.78120588235294,46.550410069039884,696.4300000000001,-0.01393831249999989,0.17619939661504802,0.56602,-0.01393831249999989,0.17619939661504802,0.56602,-0.01393831249999989,0.17619939661504802,0.56602
1,Neck,107,4,Fall,0.38388976218487403,0.6045482278523584,7.293647999999999,0.38388976218487403,0.6045482278523584,7.293647999999999,0.38388976218487403,0.6045482278523584,7.293647999999999,0.521044117647065,37.18334575839502,682.6400000000001,0.521044117647065,37.18334575839502,682.6400000000001,0.521044117647065,37.18334575839502,682.6400000000001,-0.012336974999999972,0.17992084865354538,0.5416599999999999,-0.012336974999999972,0.17992084865354538,0.5416599999999999,-0.012336974999999972,0.17992084865354538,0.5416599999999999
1,Neck,107,5,Fall,0.4406748159663852,0.6070159543194646,8.731784,0.4406748159663852,0.6070159543194646,8.731784,0.4406748159663852,0.6070159543194646,8.731784,1.6534264705882267,31.452983882741837,834.7500000000001,1.6534264705882267,31.452983882741837,834.7500000000001,1.6534264705882267,31.452983882741837,834.7500000000001,0.03509021249999999,0.2381344529924611,0.56952,0.03509021249999999,0.2381344529924611,0.56952,0.03509021249999999,0.2381344529924611,0.56952
1,Neck,107,6,Fall,0.4098152747899161,0.5541492714117837,5.266984,0.4098152747899161,0.5541492714117837,5.266984,0.4098152747899161,0.5541492714117837,5.266984,1.2972941176470556,34.20208560526071,638.4000000000001,1.2972941176470556,34.20208560526071,638.4000000000001,1.2972941176470556,34.20208560526071,638.4000000000001,0.016126512500000124,0.24309505130157769,0.58044,0.016126512500000124,0.24309505130157769,0.58044,0.016126512500000124,0.24309505130157769,0.58044
1,Neck,108,1,Fall,0.6053451873949554,0.5628649373009867,8.188396000000001,0.6053451873949554,0.5628649373009867,8.188396000000001,0.6053451873949554,0.5628649373009867,8.188396000000001,7.180882352941191,64.5707753862109,1044.68,7.180882352941191,64.5707753862109,1044.68,7.180882352941191,64.5707753862109,1044.68,0.1794158625000002,0.21223758521994532,0.7947799999999999,0.1794158625000002,0.21223758521994532,0.7947799999999999,0.1794158625000002,0.21223758521994532,0.7947799999999999
1,Neck,108,2,Fall,0.6076986596638644,0.5262833258251834,4.825832,0.6076986596638644,0.5262833258251834,4.825832,0.6076986596638644,0.5262833258251834,4.825832,3.634867647058832,51.804390734503414,656.5300000000001,3.634867647058832,51.804390734503414,656.5300000000001,3.634867647058832,51.804390734503414,656.5300000000001,0.17015442499999964,0.1969133798524047,0.7645399999999999,0.17015442499999964,0.1969133798524047,0.7645399999999999,0.17015442499999964,0.1969133798524047,0.7645399999999999
1,Neck,108,3,Fall,0.799475483193276,0.4066361767371941,6.861768,0.799475483193276,0.4066361767371941,6.861768,0.799475483193276,0.4066361767371941,6.861768,4.611235294117645,56.87840104383112,952.98,4.611235294117645,56.87840104383112,952.98,4.611235294117645,56.87840104383112,952.98,0.13511837499999982,0.13912680797673566,0.6475,0.13511837499999982,0.13912680797673566,0.6475,0.13511837499999982,0.13912680797673566,0.6475
1,Neck,108,4,Fall,0.8309083218487396,0.4325633567342107,10.148692,0.8309083218487396,0.4325633567342107,10.148692,0.8309083218487396,0.4325633567342107,10.148692,4.685117647058836,49.908365377743294,869.3300000000002,4.685117647058836,49.908365377743294,869.3300000000002,4.685117647058836,49.908365377743294,869.3300000000002,0.13959854999999982,0.12627795865341485,0.7015399999999999,0.13959854999999982,0.12627795865341485,0.7015399999999999,0.13959854999999982,0.12627795865341485,0.7015399999999999
1,Neck,108,5,Fall,0.6889186218487361,0.48505094578676095,6.44892,0.6889186218487361,0.48505094578676095,6.44892,0.6889186218487361,0.48505094578676095,6.44892,5.165632352941161,38.22819617384194,588.7700000000001,5.165632352941161,38.22819617384194,588.7700000000001,5.165632352941161,38.22819617384194,588.7700000000001,0.280974575,0.15254467456832546,0.61054,0.280974575,0.15254467456832546,0.61054,0.280974575,0.15254467456832546,0.61054
1,Neck,109,1,Fall,0.6097092504201671,0.4326156574839292,8.28014,0.6097092504201671,0.4326156574839292,8.28014,0.6097092504201671,0.4326156574839292,8.28014,1.5196911764705923,50.00065343730674,1225.91,1.5196911764705923,50.00065343730674,1225.91,1.5196911764705923,50.00065343730674,1225.91,0.03006456250000008,0.17577912409961194,0.58478,0.03006456250000008,0.17577912409961194,0.58478,0.03006456250000008,0.17577912409961194,0.58478
1,Neck,109,2,Fall,0.48534711512604806,0.4967980751708337,4.671136,0.48534711512604806,0.4967980751708337,4.671136,0.48534711512604806,0.4967980751708337,4.671136,4.023779411764677,29.983043235077847,541.73,4.023779411764677,29.983043235077847,541.73,4.023779411764677,29.983043235077847,541.73,0.13864733750000022,0.06170644581662984,0.33096,0.13864733750000022,0.06170644581662984,0.33096,0.13864733750000022,0.06170644581662984,0.33096
1,Neck,109,3,Fall,0.4783771218487415,0.4994294691736573,8.950164000000001,0.4783771218487415,0.4994294691736573,8.950164000000001,0.4783771218487415,0.4994294691736573,8.950164000000001,2.5963823529411783,33.32627591337294,702.1000000000001,2.5963823529411783,33.32627591337294,702.1000000000001,2.5963823529411783,33.32627591337294,702.1000000000001,0.22265416250000022,0.062359677296462294,0.34873999999999994,0.22265416250000022,0.062359677296462294,0.34873999999999994,0.22265416250000022,0.062359677296462294,0.34873999999999994
1,Neck,110,1,Fall,0.8294536512604996,0.30480456816361146,4.4122520000000005,0.8294536512604996,0.30480456816361146,4.4122520000000005,0.8294536512604996,0.30480456816361146,4.4122520000000005,4.7742794117647085,39.81063192296212,583.59,4.7742794117647085,39.81063192296212,583.59,4.7742794117647085,39.81063192296212,583.59,0.1272726875000001,0.13105886462015667,0.6729799999999999,0.1272726875000001,0.13105886462015667,0.6729799999999999,0.1272726875000001,0.13105886462015667,0.6729799999999999
1,Neck,110,2,Fall,0.8367040907563033,0.32535032628850824,4.96784,0.8367040907563033,0.32535032628850824,4.96784,0.8367040907563033,0.32535032628850824,4.96784,4.97710294117647,33.68157747212289,461.58000000000004,4.97710294117647,33.68157747212289,461.58000000000004,4.97710294117647,33.68157747212289,461.58000000000004,0.22945055000000017,0.09929018905069911,0.47502,0.22945055000000017,0.09929018905069911,0.47502,0.22945055000000017,0.09929018905069911,0.47502
1,Neck,111,1,Fall,0.5285613092437002,0.42064050745363374,2.303848,0.5285613092437002,0.42064050745363374,2.303848,0.5285613092437002,0.42064050745363374,2.303848,10.01150000000003,25.803495917682596,556.08,10.01150000000003,25.803495917682596,556.08,10.01150000000003,25.803495917682596,556.08,0.3630464249999996,0.17109165315798444,0.44548,0.3630464249999996,0.17109165315798444,0.44548,0.3630464249999996,0.17109165315798444,0.44548
1,Neck,112,1,Fall,0.3545372798319324,0.6312974731328507,7.419308,0.3545372798319324,0.6312974731328507,7.419308,0.3545372798319324,0.6312974731328507,7.419308,0.48483823529411235,55.335161876307474,1322.3700000000001,0.48483823529411235,55.335161876307474,1322.3700000000001,0.48483823529411235,55.335161876307474,1322.3700000000001,-0.020899724999999893,0.17373689076281917,0.5304599999999999,-0.020899724999999893,0.17373689076281917,0.5304599999999999,-0.020899724999999893,0.17373689076281917,0.5304599999999999
1,Neck,113,1,Fall,0.47415843361344323,0.4833584083981805,3.3789119999999997,0.47415843361344323,0.4833584083981805,3.3789119999999997,0.47415843361344323,0.4833584083981805,3.3789119999999997,9.66798529411718,22.361581256264525,453.6700000000001,9.66798529411718,22.361581256264525,453.6700000000001,9.66798529411718,22.361581256264525,453.6700000000001,0.30444426250000034,0.13328339929605296,0.46074,0.30444426250000034,0.13328339929605296,0.46074,0.30444426250000034,0.13328339929605296,0.46074
1,Neck,113,2,Fall,0.49771565966386844,0.4621176356097748,4.171912,0.49771565966386844,0.4621176356097748,4.171912,0.49771565966386844,0.4621176356097748,4.171912,6.853382352941131,31.530232523812366,836.5000000000001,6.853382352941131,31.530232523812366,836.5000000000001,6.853382352941131,31.530232523812366,836.5000000000001,0.07106085000000002,0.05163546881555712,0.39186,0.07106085000000002,0.05163546881555712,0.39186,0.07106085000000002,0.05163546881555712,0.39186
1,Neck,113,3,Fall,0.47415940756302444,0.48591136013716,4.671136000000001,0.47415940756302444,0.48591136013716,4.671136000000001,0.47415940756302444,0.48591136013716,4.671136000000001,5.85964705882349,36.46307393733665,913.9900000000001,5.85964705882349,36.46307393733665,913.9900000000001,5.85964705882349,36.46307393733665,913.9900000000001,0.10954256249999998,0.15238288452404525,0.42504,0.10954256249999998,0.15238288452404525,0.42504,0.10954256249999998,0.15238288452404525,0.42504
1,Neck,114,2,Fall,0.444820252941178,0.48973693712494737,2.65838,0.444820252941178,0.48973693712494737,2.65838,0.444820252941178,0.48973693712494737,2.65838,9.81852941176458,39.24575259254421,1017.73,9.81852941176458,39.24575259254421,1017.73,9.81852941176458,39.24575259254421,1017.73,0.27458882500000037,0.12693909031510228,0.6803999999999999,0.27458882500000037,0.12693909031510228,0.6803999999999999,0.27458882500000037,0.12693909031510228,0.6803999999999999
1,Neck,115,1,Fall,0.4540084420168069,0.45276214909113416,3.8456840000000003,0.4540084420168069,0.45276214909113416,3.8456840000000003,0.4540084420168069,0.45276214909113416,3.8456840000000003,10.572073529411513,29.38724782665819,429.38,10.572073529411513,29.38724782665819,429.38,10.572073529411513,29.38724782665819,429.38,-0.03393398750000017,0.19521905335377757,0.5828199999999999,-0.03393398750000017,0.19521905335377757,0.5828199999999999,-0.03393398750000017,0.19521905335377757,0.5828199999999999
1,Neck,115,2,Fall,0.6011681739495804,0.33450061591198693,3.862764,0.6011681739495804,0.33450061591198693,3.862764,0.6011681739495804,0.33450061591198693,3.862764,9.356323529411583,34.769445825759306,1070.23,9.356323529411583,34.769445825759306,1070.23,9.356323529411583,34.769445825759306,1070.23,0.42574489999999926,0.13356413749489573,0.33977999999999997,0.42574489999999926,0.13356413749489573,0.33977999999999997,0.42574489999999926,0.13356413749489573,0.33977999999999997
1,Neck,116,1,Fall,0.6906624016806737,0.40553114383510075,4.903668,0.6906624016806737,0.40553114383510075,4.903668,0.6906624016806737,0.40553114383510075,4.903668,11.925735294117635,49.49265559126548,590.94,11.925735294117635,49.49265559126548,590.94,11.925735294117635,49.49265559126548,590.94,0.22026077499999985,0.17850757319496094,0.8299199999999999,0.22026077499999985,0.17850757319496094,0.8299199999999999,0.22026077499999985,0.17850757319496094,0.8299199999999999
1,Neck,116,2,Fall,0.6894566008403359,0.3889307042311056,3.1375960000000003,0.6894566008403359,0.3889307042311056,3.1375960000000003,0.6894566008403359,0.3889307042311056,3.1375960000000003,3.19374999999999,32.15699133392352,429.24000000000007,3.19374999999999,32.15699133392352,429.24000000000007,3.19374999999999,32.15699133392352,429.24000000000007,0.3141808250000002,0.15676101292190606,0.57484,0.3141808250000002,0.15676101292190606,0.57484,0.3141808250000002,0.15676101292190606,0.57484
1,Neck,117,1,Fall,0.3635832722689082,0.583683520103542,6.6895039999999995,0.3635832722689082,0.583683520103542,6.6895039999999995,0.3635832722689082,0.583683520103542,6.6895039999999995,1.902735294117653,39.926324949758445,569.6600000000001,1.902735294117653,39.926324949758445,569.6600000000001,1.902735294117653,39.926324949758445,569.6600000000001,0.0037782500000000958,0.2034609361419836,0.6159999999999999,0.0037782500000000958,0.2034609361419836,0.6159999999999999,0.0037782500000000958,0.2034609361419836,0.6159999999999999
1,Neck,117,2,Fall,0.34412996218487285,0.6329419337618913,9.519904,0.34412996218487285,0.6329419337618913,9.519904,0.34412996218487285,0.6329419337618913,9.519904,1.6035294117646988,39.337024007485105,722.61,1.6035294117646988,39.337024007485105,722.61,1.6035294117646988,39.337024007485105,722.61,0.03546987500000005,0.2791892053692821,0.7672,0.03546987500000005,0.2791892053692821,0.7672,0.03546987500000005,0.2791892053692821,0.7672
1,Neck,118,1,Fall,0.8028954302520996,0.3861853691993006,6.0024,0.8028954302520996,0.3861853691993006,6.0024,0.8028954302520996,0.3861853691993006,6.0024,6.46535294117647,39.45905553870385,556.1500000000001,6.46535294117647,39.45905553870385,556.1500000000001,6.46535294117647,39.45905553870385,556.1500000000001,0.10319566249999984,0.13021974166821307,0.60354,0.10319566249999984,0.13021974166821307,0.60354,0.10319566249999984,0.13021974166821307,0.60354
1,Neck,118,2,Fall,0.6760268613445385,0.45610465348365764,8.697868,0.6760268613445385,0.45610465348365764,8.697868,0.6760268613445385,0.45610465348365764,8.697868,5.023882352941159,54.67610609216397,1011.3600000000001,5.023882352941159,54.67610609216397,1011.3600000000001,5.023882352941159,54.67610609216397,1011.3600000000001,0.21762711250000014,0.17374400956205363,0.79646,0.21762711250000014,0.17374400956205363,0.79646,0.21762711250000014,0.17374400956205363,0.79646
1,Neck,119,1,Fall,0.5748996773109247,0.33017852942473885,4.667964,0.5748996773109247,0.33017852942473885,4.667964,0.5748996773109247,0.33017852942473885,4.667964,6.018573529411764,21.43894809651908,455.3500000000001,6.018573529411764,21.43894809651908,455.3500000000001,6.018573529411764,21.43894809651908,455.3500000000001,0.13381313749999982,0.12001735507669649,0.45835999999999993,0.13381313749999982,0.12001735507669649,0.45835999999999993,0.13381313749999982,0.12001735507669649,0.45835999999999993
1,Neck,119,2,Fall,0.43453478151260316,0.4855044650311999,5.323592,0.43453478151260316,0.4855044650311999,5.323592,0.43453478151260316,0.4855044650311999,5.323592,4.473014705882315,32.41716760133269,632.3100000000001,4.473014705882315,32.41716760133269,632.3100000000001,4.473014705882315,32.41716760133269,632.3100000000001,-0.0618543625,0.13890161353767894,0.5430599999999999,-0.0618543625,0.13890161353767894,0.5430599999999999,-0.0618543625,0.13890161353767894,0.5430599999999999
1,Neck,119,3,Fall,0.42195478739495784,0.5600718077081992,10.435392,0.42195478739495784,0.5600718077081992,10.435392,0.42195478739495784,0.5600718077081992,10.435392,2.5233382352941245,45.541193587287694,816.27,2.5233382352941245,45.541193587287694,816.27,2.5233382352941245,45.541193587287694,816.27,0.09710513750000038,0.19984256189766528,0.66892,0.09710513750000038,0.19984256189766528,0.66892,0.09710513750000038,0.19984256189766528,0.66892
1,Neck,120,2,Fall,0.8912819697479024,0.26006307960696984,5.217696,0.8912819697479024,0.26006307960696984,5.217696,0.8912819697479024,0.26006307960696984,5.217696,5.872676470588248,39.841812821949034,685.1600000000001,5.872676470588248,39.841812821949034,685.1600000000001,5.872676470588248,39.841812821949034,685.1600000000001,0.013920900000000014,0.11261287440326655,0.5598599999999999,0.013920900000000014,0.11261287440326655,0.5598599999999999,0.013920900000000014,0.11261287440326655,0.5598599999999999
1,Neck,120,3,Fall,0.7764682310924391,0.3589500992664102,6.954732,0.7764682310924391,0.3589500992664102,6.954732,0.7764682310924391,0.3589500992664102,6.954732,3.2462352941176453,66.50253032381347,1448.5800000000002,3.2462352941176453,66.50253032381347,1448.5800000000002,3.2462352941176453,66.50253032381347,1448.5800000000002,0.30116931249999984,0.10978726549020709,0.5628,0.30116931249999984,0.10978726549020709,0.5628,0.30116931249999984,0.10978726549020709,0.5628
1,Neck,121,1,Fall,0.6027575571428581,0.6391040427478708,3.6643920000000003,0.6027575571428581,0.6391040427478708,3.6643920000000003,0.6027575571428581,0.6391040427478708,3.6643920000000003,7.741117647058781,38.70982459103233,579.8100000000001,7.741117647058781,38.70982459103233,579.8100000000001,7.741117647058781,38.70982459103233,579.8100000000001,0.3571041250000001,0.19353329621915236,0.49559999999999993,0.3571041250000001,0.19353329621915236,0.49559999999999993,0.3571041250000001,0.19353329621915236,0.49559999999999993
1,Neck,121,2,Fall,0.5309256999999968,0.6749856747247656,3.5265319999999996,0.5309256999999968,0.6749856747247656,3.5265319999999996,0.5309256999999968,0.6749856747247656,3.5265319999999996,8.429823529411898,49.526872008496085,1142.4,8.429823529411898,49.526872008496085,1142.4,8.429823529411898,49.526872008496085,1142.4,0.3232739999999998,0.18997559663038766,0.60564,0.3232739999999998,0.18997559663038766,0.60564,0.3232739999999998,0.18997559663038766,0.60564
1,Neck,122,2,Fall,0.7210566512605029,0.6385355397105,4.63234,0.7210566512605029,0.6385355397105,4.63234,0.7210566512605029,0.6385355397105,4.63234,3.1064264705882136,43.337847697575604,921.2700000000001,3.1064264705882136,43.337847697575604,921.2700000000001,3.1064264705882136,43.337847697575604,921.2700000000001,0.2390061624999998,0.1052106172137948,0.41383999999999993,0.2390061624999998,0.1052106172137948,0.41383999999999993,0.2390061624999998,0.1052106172137948,0.41383999999999993
1,Neck,123,1,Fall,0.39149548823529284,0.7862390702127512,4.216076,0.39149548823529284,0.7862390702127512,4.216076,0.39149548823529284,0.7862390702127512,4.216076,10.304147058822972,34.87400378528616,554.8900000000001,10.304147058822972,34.87400378528616,554.8900000000001,10.304147058822972,34.87400378528616,554.8900000000001,0.1173438,0.08937855448770367,0.5878599999999999,0.1173438,0.08937855448770367,0.5878599999999999,0.1173438,0.08937855448770367,0.5878599999999999
1,Neck,123,2,Fall,0.48556292184874145,0.6561885764664879,4.344908,0.48556292184874145,0.6561885764664879,4.344908,0.48556292184874145,0.6561885764664879,4.344908,7.771205882352945,43.703267317361224,1110.6200000000001,7.771205882352945,43.703267317361224,1110.6200000000001,7.771205882352945,43.703267317361224,1110.6200000000001,0.3621912875,0.20108773264916247,0.61978,0.3621912875,0.20108773264916247,0.61978,0.3621912875,0.20108773264916247,0.61978
1,Neck,124,1,Fall,0.6863464210084051,0.6782308817613778,4.540596,0.6863464210084051,0.6782308817613778,4.540596,0.6863464210084051,0.6782308817613778,4.540596,5.058676470588237,46.52953306548236,509.18000000000006,5.058676470588237,46.52953306548236,509.18000000000006,5.058676470588237,46.52953306548236,509.18000000000006,0.19483843750000016,0.1065804131048222,0.52178,0.19483843750000016,0.1065804131048222,0.52178,0.19483843750000016,0.1065804131048222,0.52178
1,Neck,124,2,Fall,0.687264752941179,0.6633870647403102,3.7841959999999997,0.687264752941179,0.6633870647403102,3.7841959999999997,0.687264752941179,0.6633870647403102,3.7841959999999997,3.5249264705882264,47.83435608007876,428.75000000000006,3.5249264705882264,47.83435608007876,428.75000000000006,3.5249264705882264,47.83435608007876,428.75000000000006,0.21474451250000037,0.09062213530930141,0.44898,0.21474451250000037,0.09062213530930141,0.44898,0.21474451250000037,0.09062213530930141,0.44898
1,Neck,125,1,Fall,0.514367583193274,0.6736264769258762,5.342136,0.514367583193274,0.6736264769258762,5.342136,0.514367583193274,0.6736264769258762,5.342136,10.823441176470357,38.11919090872049,499.03000000000003,10.823441176470357,38.11919090872049,499.03000000000003,10.823441176470357,38.11919090872049,499.03000000000003,0.24925521249999993,0.09482052265215245,0.50932,0.24925521249999993,0.09482052265215245,0.50932,0.24925521249999993,0.09482052265215245,0.50932
1,Neck,125,2,Fall,0.3820861613445382,0.8692459425063456,10.842628,0.3820861613445382,0.8692459425063456,10.842628,0.3820861613445382,0.8692459425063456,10.842628,9.721529411764621,80.50914526571168,1634.7800000000002,9.721529411764621,80.50914526571168,1634.7800000000002,9.721529411764621,80.50914526571168,1634.7800000000002,0.32772127500000037,0.20321769265495626,0.5969599999999999,0.32772127500000037,0.20321769265495626,0.5969599999999999,0.32772127500000037,0.20321769265495626,0.5969599999999999
1,Neck,126,1,Fall,0.6473212352941189,0.6427316451880362,4.0240480000000005,0.6473212352941189,0.6427316451880362,4.0240480000000005,0.6473212352941189,0.6427316451880362,4.0240480000000005,8.389235294117638,49.518183899157954,466.20000000000005,8.389235294117638,49.518183899157954,466.20000000000005,8.389235294117638,49.518183899157954,466.20000000000005,0.2790338249999994,0.15427880316511602,0.54054,0.2790338249999994,0.15427880316511602,0.54054,0.2790338249999994,0.15427880316511602,0.54054
1,Neck,126,2,Fall,0.8246578722689071,0.5530893460837791,3.3813519999999997,0.8246578722689071,0.5530893460837791,3.3813519999999997,0.8246578722689071,0.5530893460837791,3.3813519999999997,7.171500000000022,35.873069475780966,370.30000000000007,7.171500000000022,35.873069475780966,370.30000000000007,7.171500000000022,35.873069475780966,370.30000000000007,0.12253867499999997,0.12095783775893348,0.6251,0.12253867499999997,0.12095783775893348,0.6251,0.12253867499999997,0.12095783775893348,0.6251
1,Neck,127,1,Fall,-0.06415323865546237,0.1641787993254475,4.630144,-0.06415323865546237,0.1641787993254475,4.630144,-0.06415323865546237,0.1641787993254475,4.630144,6.014088235294103,26.466495238562363,692.02,6.014088235294103,26.466495238562363,692.02,6.014088235294103,26.466495238562363,692.02,-0.12203318750000021,0.16610974129678802,0.75572,-0.12203318750000021,0.16610974129678802,0.75572,-0.12203318750000021,0.16610974129678802,0.75572
1,Neck,127,2,Fall,-0.1298148689075637,0.15642888999290655,4.7641,-0.1298148689075637,0.15642888999290655,4.7641,-0.1298148689075637,0.15642888999290655,4.7641,3.697132352941151,39.32214205669614,791.7,3.697132352941151,39.32214205669614,791.7,3.697132352941151,39.32214205669614,791.7,0.20574006249999968,0.29189116941076476,0.6666799999999999,0.20574006249999968,0.29189116941076476,0.6666799999999999,0.20574006249999968,0.29189116941076476,0.6666799999999999
1,Neck,127,3,Fall,-0.3129374327731091,0.32763776754077917,5.8728359999999995,-0.3129374327731091,0.32763776754077917,5.8728359999999995,-0.3129374327731091,0.32763776754077917,5.8728359999999995,6.416279411764677,24.148971232763387,660.3800000000001,6.416279411764677,24.148971232763387,660.3800000000001,6.416279411764677,24.148971232763387,660.3800000000001,-0.09945284999999997,0.1423740617802092,0.7116199999999999,-0.09945284999999997,0.1423740617802092,0.7116199999999999,-0.09945284999999997,0.1423740617802092,0.7116199999999999
1,Neck,127,4,Fall,-0.03013358991596658,0.1364230393399736,3.099288,-0.03013358991596658,0.1364230393399736,3.099288,-0.03013358991596658,0.1364230393399736,3.099288,8.402102941176377,41.00213957857498,1380.8200000000002,8.402102941176377,41.00213957857498,1380.8200000000002,8.402102941176377,41.00213957857498,1380.8200000000002,0.006233762500000024,0.17407841144919864,0.7609,0.006233762500000024,0.17407841144919864,0.7609,0.006233762500000024,0.17407841144919864,0.7609
1,Neck,128,1,Fall,0.28743117983193306,0.45634686932062224,2.016904,0.28743117983193306,0.45634686932062224,2.016904,0.28743117983193306,0.45634686932062224,2.016904,6.109999999999999,39.85984162967276,823.4100000000001,6.109999999999999,39.85984162967276,823.4100000000001,6.109999999999999,39.85984162967276,823.4100000000001,0.037833687499999956,0.19487200657930573,0.69748,0.037833687499999956,0.19487200657930573,0.69748,0.037833687499999956,0.19487200657930573,0.69748
1,Neck,128,2,Fall,0.3394129705882355,0.5388133090453607,6.987916,0.3394129705882355,0.5388133090453607,6.987916,0.3394129705882355,0.5388133090453607,6.987916,-0.4316029411764815,76.65136000517484,1320.7600000000002,-0.4316029411764815,76.65136000517484,1320.7600000000002,-0.4316029411764815,76.65136000517484,1320.7600000000002,0.06703672499999999,0.22012954114470254,0.71932,0.06703672499999999,0.22012954114470254,0.71932,0.06703672499999999,0.22012954114470254,0.71932
1,Neck,128,3,Fall,0.34930553025210054,0.49377822654144843,2.617632,0.34930553025210054,0.49377822654144843,2.617632,0.34930553025210054,0.49377822654144843,2.617632,13.763647058823505,47.05087429209994,927.01,13.763647058823505,47.05087429209994,927.01,13.763647058823505,47.05087429209994,927.01,0.003719450000000009,0.1761926813372094,0.7776999999999998,0.003719450000000009,0.1761926813372094,0.7776999999999998,0.003719450000000009,0.1761926813372094,0.7776999999999998
1,Neck,128,4,Fall,0.30616525378151266,0.48108252004987584,4.90684,0.30616525378151266,0.48108252004987584,4.90684,0.30616525378151266,0.48108252004987584,4.90684,11.532838235294133,44.23769206115948,866.7400000000001,11.532838235294133,44.23769206115948,866.7400000000001,11.532838235294133,44.23769206115948,866.7400000000001,9.178750000001063e-05,0.1736207793488251,0.7525,9.178750000001063e-05,0.1736207793488251,0.7525,9.178750000001063e-05,0.1736207793488251,0.7525
1,Neck,129,1,Fall,0.44233360588235426,0.31851005223803985,2.1935599999999997,0.44233360588235426,0.31851005223803985,2.1935599999999997,0.44233360588235426,0.31851005223803985,2.1935599999999997,6.957720588235214,23.749576369269427,485.24,6.957720588235214,23.749576369269427,485.24,6.957720588235214,23.749576369269427,485.24,0.40923653750000005,0.125892482782032,0.41257999999999995,0.40923653750000005,0.125892482782032,0.41257999999999995,0.40923653750000005,0.125892482782032,0.41257999999999995
1,Neck,130,1,Fall,0.2534823731092436,0.6697663401338083,5.401916,0.2534823731092436,0.6697663401338083,5.401916,0.2534823731092436,0.6697663401338083,5.401916,0.5913676470588328,36.520474894641126,803.25,0.5913676470588328,36.520474894641126,803.25,0.5913676470588328,36.520474894641126,803.25,0.12056756250000018,0.340400784848555,0.7371,0.12056756250000018,0.340400784848555,0.7371,0.12056756250000018,0.340400784848555,0.7371
1,Neck,131,1,Fall,0.653094244537813,0.308020903800849,4.117988,0.653094244537813,0.308020903800849,4.117988,0.653094244537813,0.308020903800849,4.117988,6.151102941176474,20.865256366557855,470.61,6.151102941176474,20.865256366557855,470.61,6.151102941176474,20.865256366557855,470.61,0.39906326249999985,0.020766925972927962,0.3542,0.39906326249999985,0.020766925972927962,0.3542,0.39906326249999985,0.020766925972927962,0.3542
1,Neck,131,2,Fall,0.4219719596638655,0.43721902387086276,5.548316,0.4219719596638655,0.43721902387086276,5.548316,0.4219719596638655,0.43721902387086276,5.548316,4.210161764705869,22.802001994841834,657.44,4.210161764705869,22.802001994841834,657.44,4.210161764705869,22.802001994841834,657.44,0.24418677499999955,0.18905059108567462,0.44617999999999997,0.24418677499999955,0.18905059108567462,0.44617999999999997,0.24418677499999955,0.18905059108567462,0.44617999999999997
1,Neck,132,1,Fall,0.4958596193277299,0.42849546148011247,3.597292,0.4958596193277299,0.42849546148011247,3.597292,0.4958596193277299,0.42849546148011247,3.597292,10.66577941176449,32.16119784456563,492.45000000000005,10.66577941176449,32.16119784456563,492.45000000000005,10.66577941176449,32.16119784456563,492.45000000000005,0.00412229999999995,0.07630914066022951,0.5948599999999999,0.00412229999999995,0.07630914066022951,0.5948599999999999,0.00412229999999995,0.07630914066022951,0.5948599999999999
1,Neck,133,1,Fall,0.3777760243697494,0.5873449316267609,5.205252,0.3777760243697494,0.5873449316267609,5.205252,0.3777760243697494,0.5873449316267609,5.205252,1.888955882352937,40.019691967052616,644.77,1.888955882352937,40.019691967052616,644.77,1.888955882352937,40.019691967052616,644.77,-0.019137562499999955,0.1482588197421259,0.52696,-0.019137562499999955,0.1482588197421259,0.52696,-0.019137562499999955,0.1482588197421259,0.52696
1,Neck,134,1,Fall,0.6191945453781529,0.3258937030636159,4.889272,0.6191945453781529,0.3258937030636159,4.889272,0.6191945453781529,0.3258937030636159,4.889272,4.746264705882315,34.77529460423378,803.6000000000001,4.746264705882315,34.77529460423378,803.6000000000001,4.746264705882315,34.77529460423378,803.6000000000001,-0.031234787499999937,0.1420576344578924,0.4323199999999999,-0.031234787499999937,0.1420576344578924,0.4323199999999999,-0.031234787499999937,0.1420576344578924,0.4323199999999999
1,Neck,134,2,Fall,0.5025982739495812,0.44221478666073366,5.0708079999999995,0.5025982739495812,0.44221478666073366,5.0708079999999995,0.5025982739495812,0.44221478666073366,5.0708079999999995,5.781367647058816,20.066402985234756,383.18000000000006,5.781367647058816,20.066402985234756,383.18000000000006,5.781367647058816,20.066402985234756,383.18000000000006,0.05155027499999996,0.08664231979328202,0.35825999999999997,0.05155027499999996,0.08664231979328202,0.35825999999999997,0.05155027499999996,0.08664231979328202,0.35825999999999997
1,Neck,135,1,Fall,0.946461083193278,0.1923899150782029,5.380932,0.946461083193278,0.1923899150782029,5.380932,0.946461083193278,0.1923899150782029,5.380932,5.73130882352942,34.64374058292822,745.8500000000001,5.73130882352942,34.64374058292822,745.8500000000001,5.73130882352942,34.64374058292822,745.8500000000001,0.18630176249999966,0.06519040334722555,0.32395999999999997,0.18630176249999966,0.06519040334722555,0.32395999999999997,0.18630176249999966,0.06519040334722555,0.32395999999999997
1,Neck,135,2,Fall,0.9201020605042,0.2161095720678723,8.408728,0.9201020605042,0.2161095720678723,8.408728,0.9201020605042,0.2161095720678723,8.408728,6.280147058823544,31.07704794662649,664.3000000000001,6.280147058823544,31.07704794662649,664.3000000000001,6.280147058823544,31.07704794662649,664.3000000000001,0.1324070999999996,0.06584418517637648,0.51968,0.1324070999999996,0.06584418517637648,0.51968,0.1324070999999996,0.06584418517637648,0.51968
1,Wrist,1,1,No Fall,-0.37421982689075606,0.297577256404318,1.8663560000000001,-0.37421982689075606,0.297577256404318,1.8663560000000001,-0.37421982689075606,0.297577256404318,1.8663560000000001,1.1879999999999984,22.942086050927117,179.34000000000003,1.1879999999999984,22.942086050927117,179.34000000000003,1.1879999999999984,22.942086050927117,179.34000000000003,0.8162788374999996,0.2766993154127189,0.6578599999999999,0.8162788374999996,0.2766993154127189,0.6578599999999999,0.8162788374999996,0.2766993154127189,0.6578599999999999
1,Wrist,1,2,No Fall,-0.32769184621848735,0.2671683634145242,1.4400879999999998,-0.32769184621848735,0.2671683634145242,1.4400879999999998,-0.32769184621848735,0.2671683634145242,1.4400879999999998,0.8609852941176462,22.005303633380326,196.28000000000003,0.8609852941176462,22.005303633380326,196.28000000000003,0.8609852941176462,22.005303633380326,196.28000000000003,0.8393287000000007,0.2654898542402334,0.6794199999999999,0.8393287000000007,0.2654898542402334,0.6794199999999999,0.8393287000000007,0.2654898542402334,0.6794199999999999
1,Wrist,1,3,No Fall,-0.3381465285714295,0.32784683771197815,1.6045440000000002,-0.3381465285714295,0.32784683771197815,1.6045440000000002,-0.3381465285714295,0.32784683771197815,1.6045440000000002,0.3932499999999996,29.710157601099667,246.05,0.3932499999999996,29.710157601099667,246.05,0.3932499999999996,29.710157601099667,246.05,0.8294373499999995,0.2677009792397222,0.665,0.8294373499999995,0.2677009792397222,0.665,0.8294373499999995,0.2677009792397222,0.665
1,Wrist,1,4,No Fall,-0.3315181865546227,0.2695625715146122,1.307596,-0.3315181865546227,0.2695625715146122,1.307596,-0.3315181865546227,0.2695625715146122,1.307596,0.8639852941176455,23.04950114209749,261.45000000000005,0.8639852941176455,23.04950114209749,261.45000000000005,0.8639852941176455,23.04950114209749,261.45000000000005,0.8501792249999994,0.23868016552236376,0.6325199999999999,0.8501792249999994,0.23868016552236376,0.6325199999999999,0.8501792249999994,0.23868016552236376,0.6325199999999999
1,Wrist,2,1,No Fall,-0.37386131092436986,0.2978271983357259,1.8663560000000001,-0.37386131092436986,0.2978271983357259,1.8663560000000001,-0.37386131092436986,0.2978271983357259,1.8663560000000001,1.2067058823529417,22.942732771952713,179.34000000000003,1.2067058823529417,22.942732771952713,179.34000000000003,1.2067058823529417,22.942732771952713,179.34000000000003,0.8140515250000001,0.2750831182449932,0.6574399999999998,0.8140515250000001,0.2750831182449932,0.6574399999999998,0.8140515250000001,0.2750831182449932,0.6574399999999998
1,Wrist,2,2,No Fall,-0.32812996974789854,0.2669205848009096,1.4400879999999998,-0.32812996974789854,0.2669205848009096,1.4400879999999998,-0.32812996974789854,0.2669205848009096,1.4400879999999998,0.8423823529411788,22.00666310482992,196.28000000000003,0.8423823529411788,22.00666310482992,196.28000000000003,0.8423823529411788,22.00666310482992,196.28000000000003,0.8369871124999994,0.26405976855253266,0.6794199999999999,0.8369871124999994,0.26405976855253266,0.6794199999999999,0.8369871124999994,0.26405976855253266,0.6794199999999999
1,Wrist,2,3,No Fall,-0.35182944369748026,0.3194209322886826,1.6045440000000002,-0.35182944369748026,0.3194209322886826,1.6045440000000002,-0.35182944369748026,0.3194209322886826,1.6045440000000002,0.4123970588235291,29.709606620788616,246.05,0.4123970588235291,29.709606620788616,246.05,0.4123970588235291,29.709606620788616,246.05,0.8247864624999994,0.2646516811635632,0.665,0.8247864624999994,0.2646516811635632,0.665,0.8247864624999994,0.2646516811635632,0.665
1,Wrist,2,4,No Fall,-0.32899622100840403,0.27097577816758517,1.307596,-0.32899622100840403,0.27097577816758517,1.307596,-0.32899622100840403,0.27097577816758517,1.307596,0.8690441176470574,23.049551293348316,261.45000000000005,0.8690441176470574,23.049551293348316,261.45000000000005,0.8690441176470574,23.049551293348316,261.45000000000005,0.8498963374999994,0.23851350281635414,0.6325199999999999,0.8498963374999994,0.23851350281635414,0.6325199999999999,0.8498963374999994,0.23851350281635414,0.6325199999999999
1,Wrist,3,1,No Fall,-0.37397987647058845,0.2977445952421866,1.8663560000000001,-0.37397987647058845,0.2977445952421866,1.8663560000000001,-0.37397987647058845,0.2977445952421866,1.8663560000000001,1.1802794117647017,22.94237581537419,179.34000000000003,1.1802794117647017,22.94237581537419,179.34000000000003,1.1802794117647017,22.94237581537419,179.34000000000003,0.8122114874999989,0.2737276453131249,0.6574399999999998,0.8122114874999989,0.2737276453131249,0.6574399999999998,0.8122114874999989,0.2737276453131249,0.6574399999999998
1,Wrist,3,2,No Fall,-0.3292635957983181,0.266249723152468,1.4400879999999998,-0.3292635957983181,0.266249723152468,1.4400879999999998,-0.3292635957983181,0.266249723152468,1.4400879999999998,0.8384705882352963,22.00666907582703,196.28000000000003,0.8384705882352963,22.00666907582703,196.28000000000003,0.8384705882352963,22.00666907582703,196.28000000000003,0.8341067000000014,0.2622877241704553,0.6794199999999999,0.8341067000000014,0.2622877241704553,0.6794199999999999,0.8341067000000014,0.2622877241704553,0.6794199999999999
1,Wrist,3,3,No Fall,-0.3681067042016822,0.30828739035234787,1.6045440000000002,-0.3681067042016822,0.30828739035234787,1.6045440000000002,-0.3681067042016822,0.30828739035234787,1.6045440000000002,0.43282352941176283,29.710485553209917,246.05,0.43282352941176283,29.710485553209917,246.05,0.43282352941176283,29.710485553209917,246.05,0.8192309999999998,0.2608620986979244,0.665,0.8192309999999998,0.2608620986979244,0.665,0.8192309999999998,0.2608620986979244,0.665
1,Wrist,3,4,No Fall,-0.3260236243697482,0.2725715731290342,1.307596,-0.3260236243697482,0.2725715731290342,1.307596,-0.3260236243697482,0.2725715731290342,1.307596,0.8626323529411746,23.04906433546077,261.45000000000005,0.8626323529411746,23.04906433546077,261.45000000000005,0.8626323529411746,23.04906433546077,261.45000000000005,0.8498244125000002,0.23847824662870523,0.6325199999999999,0.8498244125000002,0.23847824662870523,0.6325199999999999,0.8498244125000002,0.23847824662870523,0.6325199999999999
1,Wrist,4,1,No Fall,-0.20402090756302518,0.12307293312867448,1.473272,-0.20402090756302518,0.12307293312867448,1.473272,-0.20402090756302518,0.12307293312867448,1.473272,0.01479411764705764,13.049624228231794,190.12,0.01479411764705764,13.049624228231794,190.12,0.01479411764705764,13.049624228231794,190.12,0.9650222749999982,0.12261267556396847,0.6873999999999998,0.9650222749999982,0.12261267556396847,0.6873999999999998,0.9650222749999982,0.12261267556396847,0.6873999999999998
1,Wrist,4,2,No Fall,-0.19382227142857153,0.14176070028611912,3.473096,-0.19382227142857153,0.14176070028611912,3.473096,-0.19382227142857153,0.14176070028611912,3.473096,0.4795441176470596,20.16781938718072,321.72,0.4795441176470596,20.16781938718072,321.72,0.4795441176470596,20.16781938718072,321.72,0.964282637499999,0.12745707102153836,0.73794,0.964282637499999,0.12745707102153836,0.73794,0.964282637499999,0.12745707102153836,0.73794
1,Wrist,4,3,No Fall,-0.18601027310924287,0.10956994152089063,2.155252,-0.18601027310924287,0.10956994152089063,2.155252,-0.18601027310924287,0.10956994152089063,2.155252,0.8499558823529432,15.706431635602348,263.90000000000003,0.8499558823529432,15.706431635602348,263.90000000000003,0.8499558823529432,15.706431635602348,263.90000000000003,0.9709398124999994,0.09400032401160267,0.6461000000000001,0.9709398124999994,0.09400032401160267,0.6461000000000001,0.9709398124999994,0.09400032401160267,0.6461000000000001
1,Wrist,4,4,No Fall,-0.18283637647058845,0.11679256408117465,2.30824,-0.18283637647058845,0.11679256408117465,2.30824,-0.18283637647058845,0.11679256408117465,2.30824,0.5356617647058831,19.596428902836795,337.33000000000004,0.5356617647058831,19.596428902836795,337.33000000000004,0.5356617647058831,19.596428902836795,337.33000000000004,0.9708954500000001,0.0920545556996672,0.6475,0.9708954500000001,0.0920545556996672,0.6475,0.9708954500000001,0.0920545556996672,0.6475
1,Wrist,5,1,No Fall,-0.4015139436974801,0.34085895586915377,1.42252,-0.4015139436974801,0.34085895586915377,1.42252,-0.4015139436974801,0.34085895586915377,1.42252,4.572294117647048,35.45141247614159,181.37,4.572294117647048,35.45141247614159,181.37,4.572294117647048,35.45141247614159,181.37,0.8658613249999993,0.13035966583185066,0.3845799999999999,0.8658613249999993,0.13035966583185066,0.3845799999999999,0.8658613249999993,0.13035966583185066,0.3845799999999999
1,Wrist,5,2,No Fall,-0.32748557394957994,0.3054722076319826,1.30662,-0.32748557394957994,0.3054722076319826,1.30662,-0.32748557394957994,0.3054722076319826,1.30662,0.7009558823529456,48.10953985607238,303.59000000000003,0.7009558823529456,48.10953985607238,303.59000000000003,0.7009558823529456,48.10953985607238,303.59000000000003,0.9018474500000012,0.12855983759089892,0.40348000000000006,0.9018474500000012,0.12855983759089892,0.40348000000000006,0.9018474500000012,0.12855983759089892,0.40348000000000006
1,Wrist,5,3,No Fall,-0.4246582151260504,0.3194401447639489,1.0030839999999999,-0.4246582151260504,0.3194401447639489,1.0030839999999999,-0.4246582151260504,0.3194401447639489,1.0030839999999999,3.538367647058835,28.595900550004266,153.3,3.538367647058835,28.595900550004266,153.3,3.538367647058835,28.595900550004266,153.3,0.8846567624999999,0.10944886808675545,0.3393600000000001,0.8846567624999999,0.10944886808675545,0.3393600000000001,0.8846567624999999,0.10944886808675545,0.3393600000000001
1,Wrist,5,4,No Fall,-0.3004936378151261,0.3002976648529873,1.512068,-0.3004936378151261,0.3002976648529873,1.512068,-0.3004936378151261,0.3002976648529873,1.512068,0.7743529411764661,46.124250806057056,340.06000000000006,0.7743529411764661,46.124250806057056,340.06000000000006,0.7743529411764661,46.124250806057056,340.06000000000006,0.9199378999999996,0.11344151018359842,0.4090799999999999,0.9199378999999996,0.11344151018359842,0.4090799999999999,0.9199378999999996,0.11344151018359842,0.4090799999999999
1,Wrist,6,1,No Fall,-0.4352136243697486,0.3381396899196642,1.42252,-0.4352136243697486,0.3381396899196642,1.42252,-0.4352136243697486,0.3381396899196642,1.42252,1.2286470588235225,39.445776596462,221.90000000000003,1.2286470588235225,39.445776596462,221.90000000000003,1.2286470588235225,39.445776596462,221.90000000000003,0.8552447749999986,0.1314857317667427,0.4031999999999999,0.8552447749999986,0.1314857317667427,0.4031999999999999,0.8552447749999986,0.1314857317667427,0.4031999999999999
1,Wrist,6,2,No Fall,-0.3266066100840327,0.305932451955024,1.30662,-0.3266066100840327,0.305932451955024,1.30662,-0.3266066100840327,0.305932451955024,1.30662,0.6630735294117635,48.1095261833771,303.59000000000003,0.6630735294117635,48.1095261833771,303.59000000000003,0.6630735294117635,48.1095261833771,303.59000000000003,0.9022150374999987,0.12882779837109792,0.40348000000000006,0.9022150374999987,0.12882779837109792,0.40348000000000006,0.9022150374999987,0.12882779837109792,0.40348000000000006
1,Wrist,6,3,No Fall,-0.4531793546218488,0.31726903322271255,1.015528,-0.4531793546218488,0.31726903322271255,1.015528,-0.4531793546218488,0.31726903322271255,1.015528,1.3868529411764805,32.344428913676175,164.5,1.3868529411764805,32.344428913676175,164.5,1.3868529411764805,32.344428913676175,164.5,0.8817155375000008,0.11428591222639585,0.3609199999999999,0.8817155375000008,0.11428591222639585,0.3609199999999999,0.8817155375000008,0.11428591222639585,0.3609199999999999
1,Wrist,6,4,No Fall,-0.2955301857142845,0.3024945909693577,1.512068,-0.2955301857142845,0.3024945909693577,1.512068,-0.2955301857142845,0.3024945909693577,1.512068,0.812808823529406,46.1247289513266,340.06000000000006,0.812808823529406,46.1247289513266,340.06000000000006,0.812808823529406,46.1247289513266,340.06000000000006,0.9168243000000003,0.11135542370042967,0.4090799999999999,0.9168243000000003,0.11135542370042967,0.4090799999999999,0.9168243000000003,0.11135542370042967,0.4090799999999999
1,Wrist,7,1,No Fall,-0.39936115630252217,0.33228652909133505,1.42252,-0.39936115630252217,0.33228652909133505,1.42252,-0.39936115630252217,0.33228652909133505,1.42252,-1.6327647058823482,36.51027503239413,221.90000000000003,-1.6327647058823482,36.51027503239413,221.90000000000003,-1.6327647058823482,36.51027503239413,221.90000000000003,0.8729099749999988,0.134728903624721,0.4031999999999999,0.8729099749999988,0.134728903624721,0.4031999999999999,0.8729099749999988,0.134728903624721,0.4031999999999999
1,Wrist,7,2,No Fall,-0.3250540831932768,0.3067444266330239,1.30662,-0.3250540831932768,0.3067444266330239,1.30662,-0.3250540831932768,0.3067444266330239,1.30662,0.6537647058823545,48.10926541282822,303.59000000000003,0.6537647058823545,48.10926541282822,303.59000000000003,0.6537647058823545,48.10926541282822,303.59000000000003,0.9020654999999995,0.12871693074694196,0.40348000000000006,0.9020654999999995,0.12871693074694196,0.40348000000000006,0.9020654999999995,0.12871693074694196,0.40348000000000006
1,Wrist,7,3,No Fall,-0.4253769386554617,0.3112644423345525,1.015528,-0.4253769386554617,0.3112644423345525,1.015528,-0.4253769386554617,0.3112644423345525,1.015528,-0.8769411764706008,29.229186289278207,157.71000000000004,-0.8769411764706008,29.229186289278207,157.71000000000004,-0.8769411764706008,29.229186289278207,157.71000000000004,0.8973188000000014,0.11758116504161216,0.3609199999999999,0.8973188000000014,0.11758116504161216,0.3609199999999999,0.8973188000000014,0.11758116504161216,0.3609199999999999
1,Wrist,7,4,No Fall,-0.29080847815126004,0.3044899745777564,1.512068,-0.29080847815126004,0.3044899745777564,1.512068,-0.29080847815126004,0.3044899745777564,1.512068,0.8119411764705865,46.12483289048334,340.06000000000006,0.8119411764705865,46.12483289048334,340.06000000000006,0.8119411764705865,46.12483289048334,340.06000000000006,0.9113004249999997,0.10730358911503135,0.4090799999999999,0.9113004249999997,0.10730358911503135,0.4090799999999999,0.9113004249999997,0.10730358911503135,0.4090799999999999
1,Wrist,8,1,No Fall,-0.4788854722689073,0.3172226127331245,0.805932,-0.4788854722689073,0.3172226127331245,0.805932,-0.4788854722689073,0.3172226127331245,0.805932,2.8253676470588283,17.909744448150867,202.44,2.8253676470588283,17.909744448150867,202.44,2.8253676470588283,17.909744448150867,202.44,0.9326414125000007,0.061425197260907866,0.29190000000000005,0.9326414125000007,0.061425197260907866,0.29190000000000005,0.9326414125000007,0.061425197260907866,0.29190000000000005
1,Wrist,8,2,No Fall,-0.4415643394957984,0.3506375574012956,0.8903559999999999,-0.4415643394957984,0.3506375574012956,0.8903559999999999,-0.4415643394957984,0.3506375574012956,0.8903559999999999,3.082132352941182,19.388452830043114,261.31,3.082132352941182,19.388452830043114,261.31,3.082132352941182,19.388452830043114,261.31,0.9446678500000009,0.057103348655265285,0.19781999999999988,0.9446678500000009,0.057103348655265285,0.19781999999999988,0.9446678500000009,0.057103348655265285,0.19781999999999988
1,Wrist,8,3,No Fall,-0.4671663983193271,0.3152071791026196,0.7590840000000001,-0.4671663983193271,0.3152071791026196,0.7590840000000001,-0.4671663983193271,0.3152071791026196,0.7590840000000001,2.467544117647065,14.030632415329576,139.23000000000002,2.467544117647065,14.030632415329576,139.23000000000002,2.467544117647065,14.030632415329576,139.23000000000002,0.9140879124999988,0.07496527693611657,0.29413999999999996,0.9140879124999988,0.07496527693611657,0.29413999999999996,0.9140879124999988,0.07496527693611657,0.29413999999999996
1,Wrist,8,4,No Fall,-0.43221785798319334,0.3409185369168243,0.9823439999999999,-0.43221785798319334,0.3409185369168243,0.9823439999999999,-0.43221785798319334,0.3409185369168243,0.9823439999999999,2.967823529411761,23.891326139172975,319.97,2.967823529411761,23.891326139172975,319.97,2.967823529411761,23.891326139172975,319.97,0.9303970374999975,0.07599754295408497,0.3474799999999999,0.9303970374999975,0.07599754295408497,0.3474799999999999,0.9303970374999975,0.07599754295408497,0.3474799999999999
1,Wrist,9,1,No Fall,-0.4053336201680678,0.3386279753027738,0.895724,-0.4053336201680678,0.3386279753027738,0.895724,-0.4053336201680678,0.3386279753027738,0.895724,-0.07369117647058734,11.0608262672854,106.89000000000001,-0.07369117647058734,11.0608262672854,106.89000000000001,-0.07369117647058734,11.0608262672854,106.89000000000001,0.9537799249999991,0.05604613709633799,0.22273999999999994,0.9537799249999991,0.05604613709633799,0.22273999999999994,0.9537799249999991,0.05604613709633799,0.22273999999999994
1,Wrist,9,2,No Fall,-0.40953006134453923,0.3521569794250563,1.279048,-0.40953006134453923,0.3521569794250563,1.279048,-0.40953006134453923,0.3521569794250563,1.279048,0.22936764705882282,14.235309412937942,241.08,0.22936764705882282,14.235309412937942,241.08,0.22936764705882282,14.235309412937942,241.08,0.9546168625000001,0.04943075071100479,0.23659999999999992,0.9546168625000001,0.04943075071100479,0.23659999999999992,0.9546168625000001,0.04943075071100479,0.23659999999999992
1,Wrist,9,3,No Fall,-0.4121377344537824,0.33301425216098396,0.883524,-0.4121377344537824,0.33301425216098396,0.883524,-0.4121377344537824,0.33301425216098396,0.883524,0.31814705882352984,10.83565749877571,106.61000000000001,0.31814705882352984,10.83565749877571,106.61000000000001,0.31814705882352984,10.83565749877571,106.61000000000001,0.9370186000000008,0.07322934790718692,0.27803999999999995,0.9370186000000008,0.07322934790718692,0.27803999999999995,0.9370186000000008,0.07322934790718692,0.27803999999999995
1,Wrist,9,4,No Fall,-0.41744898907563055,0.33132101633521044,0.9516,-0.41744898907563055,0.33132101633521044,0.9516,-0.41744898907563055,0.33132101633521044,0.9516,0.09470588235294113,16.515523161976105,292.25,0.09470588235294113,16.515523161976105,292.25,0.09470588235294113,16.515523161976105,292.25,0.9367437625000008,0.06800926872485032,0.27859999999999985,0.9367437625000008,0.06800926872485032,0.27859999999999985,0.9367437625000008,0.06800926872485032,0.27859999999999985
1,Wrist,10,1,No Fall,-0.17621915798319307,0.181667518061693,0.97966,-0.17621915798319307,0.181667518061693,0.97966,-0.17621915798319307,0.181667518061693,0.97966,2.442073529411767,26.82205305953832,257.88000000000005,2.442073529411767,26.82205305953832,257.88000000000005,2.442073529411767,26.82205305953832,257.88000000000005,0.9601893874999995,0.057544837564557395,0.35196000000000005,0.9601893874999995,0.057544837564557395,0.35196000000000005,0.9601893874999995,0.057544837564557395,0.35196000000000005
1,Wrist,10,2,No Fall,-0.13321692605042026,0.10383921959025527,1.097268,-0.13321692605042026,0.10383921959025527,1.097268,-0.13321692605042026,0.10383921959025527,1.097268,2.3369558823529513,20.49633890089016,276.43000000000006,2.3369558823529513,20.49633890089016,276.43000000000006,2.3369558823529513,20.49633890089016,276.43000000000006,0.9910547500000007,0.04186649505353345,0.31248,0.9910547500000007,0.04186649505353345,0.31248,0.9910547500000007,0.04186649505353345,0.31248
1,Wrist,11,1,No Fall,-0.1429119277310926,0.06032060438063789,0.497516,-0.1429119277310926,0.06032060438063789,0.497516,-0.1429119277310926,0.06032060438063789,0.497516,0.3781911764705842,9.803065131320267,84.14000000000001,0.3781911764705842,9.803065131320267,84.14000000000001,0.3781911764705842,9.803065131320267,84.14000000000001,0.8936671624999996,0.1770465475078204,0.5635000000000001,0.8936671624999996,0.1770465475078204,0.5635000000000001,0.8936671624999996,0.1770465475078204,0.5635000000000001
1,Wrist,11,2,No Fall,-0.0997128042016805,0.07209934424316555,0.876692,-0.0997128042016805,0.07209934424316555,0.876692,-0.0997128042016805,0.07209934424316555,0.876692,0.428132352941172,13.191507815262682,148.68,0.428132352941172,13.191507815262682,148.68,0.428132352941172,13.191507815262682,148.68,0.9568700749999992,0.14955094669051547,0.6393799999999998,0.9568700749999992,0.14955094669051547,0.6393799999999998,0.9568700749999992,0.14955094669051547,0.6393799999999998
1,Wrist,11,3,No Fall,-0.15947255630252072,0.06161115422436043,0.4087,-0.15947255630252072,0.06161115422436043,0.4087,-0.15947255630252072,0.06161115422436043,0.4087,0.6747941176470637,9.983307732607141,100.73,0.6747941176470637,9.983307732607141,100.73,0.6747941176470637,9.983307732607141,100.73,0.9142099750000007,0.17434436212529908,0.58128,0.9142099750000007,0.17434436212529908,0.58128,0.9142099750000007,0.17434436212529908,0.58128
1,Wrist,11,4,No Fall,-0.12203952184873967,0.07996542486047975,0.751764,-0.12203952184873967,0.07996542486047975,0.751764,-0.12203952184873967,0.07996542486047975,0.751764,0.16825000000000004,15.333257011012693,149.45,0.16825000000000004,15.333257011012693,149.45,0.16825000000000004,15.333257011012693,149.45,0.8998201624999996,0.19459459853329694,0.6075999999999999,0.8998201624999996,0.19459459853329694,0.6075999999999999,0.8998201624999996,0.19459459853329694,0.6075999999999999
1,Wrist,12,1,No Fall,-0.09146468151260542,0.07393932671414608,3.335724,-0.09146468151260542,0.07393932671414608,3.335724,-0.09146468151260542,0.07393932671414608,3.335724,1.421147058823517,21.097269124631666,416.78000000000003,1.421147058823517,21.097269124631666,416.78000000000003,1.421147058823517,21.097269124631666,416.78000000000003,1.0167324999999985,0.009543426185841378,0.07209999999999994,1.0167324999999985,0.009543426185841378,0.07209999999999994,1.0167324999999985,0.009543426185841378,0.07209999999999994
1,Wrist,12,2,No Fall,-0.10858640756302519,0.07405884501652196,2.24236,-0.10858640756302519,0.07405884501652196,2.24236,-0.10858640756302519,0.07405884501652196,2.24236,1.318161764705877,20.230611096669847,320.6,1.318161764705877,20.230611096669847,320.6,1.318161764705877,20.230611096669847,320.6,1.0104193749999995,0.009527783675807457,0.0826,1.0104193749999995,0.009527783675807457,0.0826,1.0104193749999995,0.009527783675807457,0.0826
1,Wrist,12,3,No Fall,-0.10342216806722707,0.06398791552756498,0.8874279999999999,-0.10342216806722707,0.06398791552756498,0.8874279999999999,-0.10342216806722707,0.06398791552756498,0.8874279999999999,1.3942941176470567,18.713638879351983,259.91,1.3942941176470567,18.713638879351983,259.91,1.3942941176470567,18.713638879351983,259.91,1.0119056500000019,0.009568376728748962,0.08413999999999988,1.0119056500000019,0.009568376728748962,0.08413999999999988,1.0119056500000019,0.009568376728748962,0.08413999999999988
1,Wrist,12,4,No Fall,-0.1180045000000003,0.08170986397094077,2.6720439999999996,-0.1180045000000003,0.08170986397094077,2.6720439999999996,-0.1180045000000003,0.08170986397094077,2.6720439999999996,1.374426470588222,35.18579282633062,583.94,1.374426470588222,35.18579282633062,583.94,1.374426470588222,35.18579282633062,583.94,1.0082749249999994,0.024661500699569038,0.2717400000000001,1.0082749249999994,0.024661500699569038,0.2717400000000001,1.0082749249999994,0.024661500699569038,0.2717400000000001
1,Wrist,13,1,No Fall,0.4405771134453799,0.4190235397632328,1.212924,0.4405771134453799,0.4190235397632328,1.212924,0.4405771134453799,0.4190235397632328,1.212924,2.410382352941186,22.611153470206425,140.28000000000003,2.410382352941186,22.611153470206425,140.28000000000003,2.410382352941186,22.611153470206425,140.28000000000003,0.9302294750000009,0.1369651281848268,0.43582,0.9302294750000009,0.1369651281848268,0.43582,0.9302294750000009,0.1369651281848268,0.43582
1,Wrist,13,2,No Fall,0.4994305798319337,0.3982750108203869,0.845948,0.4994305798319337,0.3982750108203869,0.845948,0.4994305798319337,0.3982750108203869,0.845948,3.8980588235294205,10.493937777721541,95.2,3.8980588235294205,10.493937777721541,95.2,3.8980588235294205,10.493937777721541,95.2,0.8175887124999994,0.21084408557416529,0.4808999999999999,0.8175887124999994,0.21084408557416529,0.4808999999999999,0.8175887124999994,0.21084408557416529,0.4808999999999999
1,Wrist,13,3,No Fall,0.6322705873949565,0.27054686692016866,0.900604,0.6322705873949565,0.27054686692016866,0.900604,0.6322705873949565,0.27054686692016866,0.900604,3.683161764705889,23.626332476325818,157.92000000000002,3.683161764705889,23.626332476325818,157.92000000000002,3.683161764705889,23.626332476325818,157.92000000000002,0.9576335999999998,0.15051828197862255,0.50022,0.9576335999999998,0.15051828197862255,0.50022,0.9576335999999998,0.15051828197862255,0.50022
1,Wrist,13,4,No Fall,0.6253503168067222,0.2589945894062278,0.617076,0.6253503168067222,0.2589945894062278,0.617076,0.6253503168067222,0.2589945894062278,0.617076,2.9392058823529323,12.138781287115368,124.04,2.9392058823529323,12.138781287115368,124.04,2.9392058823529323,12.138781287115368,124.04,1.0264385250000003,0.045018163203431105,0.1351,1.0264385250000003,0.045018163203431105,0.1351,1.0264385250000003,0.045018163203431105,0.1351
1,Wrist,13,5,No Fall,0.43030896806723024,0.4487179800745499,1.379576,0.43030896806723024,0.4487179800745499,1.379576,0.43030896806723024,0.4487179800745499,1.379576,4.127749999999998,25.615353715214695,168.84000000000003,4.127749999999998,25.615353715214695,168.84000000000003,4.127749999999998,25.615353715214695,168.84000000000003,0.9180485124999999,0.12224132933836822,0.46031999999999995,0.9180485124999999,0.12224132933836822,0.46031999999999995,0.9180485124999999,0.12224132933836822,0.46031999999999995
1,Wrist,13,6,No Fall,0.4588534823529374,0.46905628588743614,1.029924,0.4588534823529374,0.46905628588743614,1.029924,0.4588534823529374,0.46905628588743614,1.029924,4.3209852941176505,12.041524581309154,91.0,4.3209852941176505,12.041524581309154,91.0,4.3209852941176505,12.041524581309154,91.0,0.7961954874999981,0.20593413120311987,0.47782,0.7961954874999981,0.20593413120311987,0.47782,0.7961954874999981,0.20593413120311987,0.47782
1,Wrist,13,7,No Fall,0.6096080621848732,0.30542168795011543,1.1216679999999999,0.6096080621848732,0.30542168795011543,1.1216679999999999,0.6096080621848732,0.30542168795011543,1.1216679999999999,4.719470588235273,25.858762455447046,177.94000000000003,4.719470588235273,25.858762455447046,177.94000000000003,4.719470588235273,25.858762455447046,177.94000000000003,0.9542344874999997,0.13327775678313902,0.47361999999999993,0.9542344874999997,0.13327775678313902,0.47361999999999993,0.9542344874999997,0.13327775678313902,0.47361999999999993
1,Wrist,13,8,No Fall,0.5673030243697472,0.314254993086024,0.762988,0.5673030243697472,0.314254993086024,0.762988,0.5673030243697472,0.314254993086024,0.762988,3.328808823529413,11.817130521605513,108.64,3.328808823529413,11.817130521605513,108.64,3.328808823529413,11.817130521605513,108.64,1.0225246500000011,0.03313574149208291,0.11578,1.0225246500000011,0.03313574149208291,0.11578,1.0225246500000011,0.03313574149208291,0.11578
1,Wrist,13,9,No Fall,0.4079850697478982,0.44140506903736176,1.403,0.4079850697478982,0.44140506903736176,1.403,0.4079850697478982,0.44140506903736176,1.403,3.2068529411764835,24.383740549922404,170.66000000000003,3.2068529411764835,24.383740549922404,170.66000000000003,3.2068529411764835,24.383740549922404,170.66000000000003,0.9370572749999986,0.12496818979188962,0.45220000000000005,0.9370572749999986,0.12496818979188962,0.45220000000000005,0.9370572749999986,0.12496818979188962,0.45220000000000005
1,Wrist,13,10,No Fall,0.40261737731092573,0.4791552984427171,1.05896,0.40261737731092573,0.4791552984427171,1.05896,0.40261737731092573,0.4791552984427171,1.05896,4.055838235294133,11.699073375764968,92.33,4.055838235294133,11.699073375764968,92.33,4.055838235294133,11.699073375764968,92.33,0.8269205874999994,0.21651066995250348,0.49252000000000007,0.8269205874999994,0.21651066995250348,0.49252000000000007,0.8269205874999994,0.21651066995250348,0.49252000000000007
1,Wrist,13,11,No Fall,0.5526902949579852,0.3634056224059684,1.1216679999999999,0.5526902949579852,0.3634056224059684,1.1216679999999999,0.5526902949579852,0.3634056224059684,1.1216679999999999,4.781544117647036,27.11790388790278,184.66000000000003,4.781544117647036,27.11790388790278,184.66000000000003,4.781544117647036,27.11790388790278,184.66000000000003,0.9417910250000021,0.13113467036240348,0.4464600000000001,0.9417910250000021,0.13113467036240348,0.4464600000000001,0.9417910250000021,0.13113467036240348,0.4464600000000001
1,Wrist,13,12,No Fall,0.5655183386554634,0.3754781921470528,2.552972,0.5655183386554634,0.3754781921470528,2.552972,0.5655183386554634,0.3754781921470528,2.552972,6.10741176470589,28.807101603917687,420.4200000000001,6.10741176470589,28.807101603917687,420.4200000000001,6.10741176470589,28.807101603917687,420.4200000000001,0.9444521625,0.09425355700955916,0.30576000000000003,0.9444521625,0.09425355700955916,0.30576000000000003,0.9444521625,0.09425355700955916,0.30576000000000003
1,Wrist,14,1,No Fall,0.4801545285714292,0.42885839172120854,1.442772,0.4801545285714292,0.42885839172120854,1.442772,0.4801545285714292,0.42885839172120854,1.442772,1.0102058823529376,26.969778462666834,182.42000000000002,1.0102058823529376,26.969778462666834,182.42000000000002,1.0102058823529376,26.969778462666834,182.42000000000002,0.8845828249999984,0.17171670564156574,0.56028,0.8845828249999984,0.17171670564156574,0.56028,0.8845828249999984,0.17171670564156574,0.56028
1,Wrist,14,2,No Fall,0.4138303563025203,0.3912097193684573,1.1382599999999998,0.4138303563025203,0.3912097193684573,1.1382599999999998,0.4138303563025203,0.3912097193684573,1.1382599999999998,-0.7042647058823525,13.323126178159745,139.65,-0.7042647058823525,13.323126178159745,139.65,-0.7042647058823525,13.323126178159745,139.65,0.8334231500000004,0.18671812725464276,0.4788,0.8334231500000004,0.18671812725464276,0.4788,0.8334231500000004,0.18671812725464276,0.4788
1,Wrist,14,3,No Fall,0.6478814100840338,0.2722736575326788,0.8927959999999999,0.6478814100840338,0.2722736575326788,0.8927959999999999,0.6478814100840338,0.2722736575326788,0.8927959999999999,4.014205882352942,20.895693726353674,130.62,4.014205882352942,20.895693726353674,130.62,4.014205882352942,20.895693726353674,130.62,0.9289866250000012,0.17054888455329562,0.56784,0.9289866250000012,0.17054888455329562,0.56784,0.9289866250000012,0.17054888455329562,0.56784
1,Wrist,14,4,No Fall,0.5724297924369756,0.22884441051869928,0.661972,0.5724297924369756,0.22884441051869928,0.661972,0.5724297924369756,0.22884441051869928,0.661972,-0.37408823529411916,17.894529698117804,158.55,-0.37408823529411916,17.894529698117804,158.55,-0.37408823529411916,17.894529698117804,158.55,1.0477820499999995,0.036071195367731256,0.19782,1.0477820499999995,0.036071195367731256,0.19782,1.0477820499999995,0.036071195367731256,0.19782
1,Wrist,14,5,No Fall,0.4317099689075633,0.4675197248652301,1.602104,0.4317099689075633,0.4675197248652301,1.602104,0.4317099689075633,0.4675197248652301,1.602104,0.7304999999999906,31.826471360527105,211.75000000000003,0.7304999999999906,31.826471360527105,211.75000000000003,0.7304999999999906,31.826471360527105,211.75000000000003,0.9072048999999995,0.14959543232113437,0.54362,0.9072048999999995,0.14959543232113437,0.54362,0.9072048999999995,0.14959543232113437,0.54362
1,Wrist,14,6,No Fall,0.35237967394957986,0.5033190826091715,1.37372,0.35237967394957986,0.5033190826091715,1.37372,0.35237967394957986,0.5033190826091715,1.37372,-1.547926470588235,15.594745838224767,146.65000000000003,-1.547926470588235,15.594745838224767,146.65000000000003,-1.547926470588235,15.594745838224767,146.65000000000003,0.8315783875,0.19608243666218406,0.48958,0.8315783875,0.19608243666218406,0.48958,0.8315783875,0.19608243666218406,0.48958
1,Wrist,14,7,No Fall,0.6062727974789905,0.306915435165499,1.019676,0.6062727974789905,0.306915435165499,1.019676,0.6062727974789905,0.306915435165499,1.019676,4.686911764705875,28.821351932416654,193.48000000000002,4.686911764705875,28.821351932416654,193.48000000000002,4.686911764705875,28.821351932416654,193.48000000000002,0.9341269000000005,0.1597920942936923,0.57596,0.9341269000000005,0.1597920942936923,0.57596,0.9341269000000005,0.1597920942936923,0.57596
1,Wrist,14,8,No Fall,0.5548269865546216,0.31187902061328165,0.893528,0.5548269865546216,0.31187902061328165,0.893528,0.5548269865546216,0.31187902061328165,0.893528,-0.8708382352941202,18.074302038836787,171.29000000000002,-0.8708382352941202,18.074302038836787,171.29000000000002,-0.8708382352941202,18.074302038836787,171.29000000000002,1.0414526499999992,0.020157943450538236,0.11269999999999991,1.0414526499999992,0.020157943450538236,0.11269999999999991,1.0414526499999992,0.020157943450538236,0.11269999999999991
1,Wrist,14,9,No Fall,0.190159298319328,0.33824148967582024,1.46034,0.190159298319328,0.33824148967582024,1.46034,0.190159298319328,0.33824148967582024,1.46034,0.6508088235294077,20.730555927470785,156.73000000000002,0.6508088235294077,20.730555927470785,156.73000000000002,0.6508088235294077,20.730555927470785,156.73000000000002,0.9312823624999993,0.13083974153098904,0.49224,0.9312823624999993,0.13083974153098904,0.49224,0.9312823624999993,0.13083974153098904,0.49224
