SubjectID,Device,ActivityID,TrialNo,Fall,Mean Acc X,Std Acc X,Rng Acc X,Mean Acc Y,Std Acc Y,Rng Acc Y,Mean Acc Z,Std Acc Z,Rng Acc Z,Mean Gyr X,Std Gyr X,Rng Gyr X,Mean Gyr Y,Std Gyr Y,Rng Gyr Y,Mean Gyr Z,Std Gyr Z,Rng Gyr Z,Mean Mag X,Std Mag X,Rng Mag X,Mean Mag Y,Std Mag Y,Rng Mag Y,Mean Mag Z,Std Mag Z,Rng Mag Z
1,Waist,13,1,No Fall,0.9215822588235275,0.06719839223564475,0.654164,0.9215822588235275,0.06719839223564475,0.654164,0.9215822588235275,0.06719839223564475,0.654164,2.1058235294117673,13.681481932973623,105.28,2.1058235294117673,13.681481932973623,105.28,2.1058235294117673,13.681481932973623,105.28,0.2489503624999996,0.10344888734322592,0.36049999999999993,0.2489503624999996,0.10344888734322592,0.36049999999999993,0.2489503624999996,0.10344888734322592,0.36049999999999993
1,Waist,13,2,No Fall,0.9096885915966425,0.030402835659978828,0.41748399999999997,0.9096885915966425,0.030402835659978828,0.41748399999999997,0.9096885915966425,0.030402835659978828,0.41748399999999997,0.6897352941176474,5.834667802408395,58.03,0.6897352941176474,5.834667802408395,58.03,0.6897352941176474,5.834667802408395,58.03,0.25554086249999974,0.07478966472865739,0.22442,0.25554086249999974,0.07478966472865739,0.22442,0.25554086249999974,0.07478966472865739,0.22442
1,Waist,13,5,No Fall,0.924140824369748,0.09942621047842813,0.8134959999999999,0.924140824369748,0.09942621047842813,0.8134959999999999,0.924140824369748,0.09942621047842813,0.8134959999999999,0.2114558823529402,14.64430673303678,121.10000000000001,0.2114558823529402,14.64430673303678,121.10000000000001,0.2114558823529402,14.64430673303678,121.10000000000001,0.2703939874999999,0.11559478701195844,0.41985999999999996,0.2703939874999999,0.11559478701195844,0.41985999999999996,0.2703939874999999,0.11559478701195844,0.41985999999999996
1,Waist,13,6,No Fall,0.9097017142857163,0.06792640655584298,0.504592,0.9097017142857163,0.06792640655584298,0.504592,0.9097017142857163,0.06792640655584298,0.504592,0.12772058823529395,8.011971870160405,91.84,0.12772058823529395,8.011971870160405,91.84,0.12772058823529395,8.011971870160405,91.84,0.28054302500000006,0.11951525580268132,0.3201799999999999,0.28054302500000006,0.11951525580268132,0.3201799999999999,0.28054302500000006,0.11951525580268132,0.3201799999999999
1,Waist,13,9,No Fall,0.903871344537817,0.13301193065412173,1.1284999999999998,0.903871344537817,0.13301193065412173,1.1284999999999998,0.903871344537817,0.13301193065412173,1.1284999999999998,0.8832500000000016,16.82026323671819,139.16000000000003,0.8832500000000016,16.82026323671819,139.16000000000003,0.8832500000000016,16.82026323671819,139.16000000000003,0.2645237875,0.11419799878383903,0.39298,0.2645237875,0.11419799878383903,0.39298,0.2645237875,0.11419799878383903,0.39298
1,Waist,13,10,No Fall,0.8909505705882366,0.08777221308314308,0.376004,0.8909505705882366,0.08777221308314308,0.376004,0.8909505705882366,0.08777221308314308,0.376004,0.2729558823529414,5.649623400762392,57.82000000000001,0.2729558823529414,5.649623400762392,57.82000000000001,0.2729558823529414,5.649623400762392,57.82000000000001,0.2718412374999998,0.10009443548833494,0.26599999999999996,0.2718412374999998,0.10009443548833494,0.26599999999999996,0.2718412374999998,0.10009443548833494,0.26599999999999996
1,Waist,13,12,No Fall,0.9112259453781525,0.08326715096300381,0.86376,0.9112259453781525,0.08326715096300381,0.86376,0.9112259453781525,0.08326715096300381,0.86376,0.04079411764705873,11.284035514420246,109.69,0.04079411764705873,11.284035514420246,109.69,0.04079411764705873,11.284035514420246,109.69,0.21017149999999976,0.19323027972830079,0.5340999999999999,0.21017149999999976,0.19323027972830079,0.5340999999999999,0.21017149999999976,0.19323027972830079,0.5340999999999999
1,Waist,14,1,No Fall,0.9169792705882357,0.07041438833490048,0.603412,0.9169792705882357,0.07041438833490048,0.603412,0.9169792705882357,0.07041438833490048,0.603412,0.11641176470587906,16.665269351116713,131.46,0.11641176470587906,16.665269351116713,131.46,0.11641176470587906,16.665269351116713,131.46,0.19723278750000017,0.10368056282964888,0.46984,0.19723278750000017,0.10368056282964888,0.46984,0.19723278750000017,0.10368056282964888,0.46984
1,Waist,14,3,No Fall,0.9626951823529408,0.06063360391353924,0.6041439999999999,0.9626951823529408,0.06063360391353924,0.6041439999999999,0.9626951823529408,0.06063360391353924,0.6041439999999999,-1.0751617647058838,13.337296572565224,93.94000000000001,-1.0751617647058838,13.337296572565224,93.94000000000001,-1.0751617647058838,13.337296572565224,93.94000000000001,0.1113867999999999,0.11097790701379813,0.5619599999999999,0.1113867999999999,0.11097790701379813,0.5619599999999999,0.1113867999999999,0.11097790701379813,0.5619599999999999
1,Waist,14,5,No Fall,0.9201249226890762,0.10007019259518467,0.931836,0.9201249226890762,0.10007019259518467,0.931836,0.9201249226890762,0.10007019259518467,0.931836,1.5259558823529387,17.698646685108162,143.71000000000004,1.5259558823529387,17.698646685108162,143.71000000000004,1.5259558823529387,17.698646685108162,143.71000000000004,0.21816716249999984,0.09735320476747368,0.45611999999999997,0.21816716249999984,0.09735320476747368,0.45611999999999997,0.21816716249999984,0.09735320476747368,0.45611999999999997
1,Waist,14,6,No Fall,0.922061903361342,0.06587259060986486,1.06872,0.922061903361342,0.06587259060986486,1.06872,0.922061903361342,0.06587259060986486,1.06872,1.9161617647058817,13.18930941912593,191.45000000000002,1.9161617647058817,13.18930941912593,191.45000000000002,1.9161617647058817,13.18930941912593,191.45000000000002,0.3180644249999998,0.12271919996559008,0.34454,0.3180644249999998,0.12271919996559008,0.34454,0.3180644249999998,0.12271919996559008,0.34454
1,Waist,14,8,No Fall,0.9599486957983174,0.04605584519399889,0.5360680000000001,0.9599486957983174,0.04605584519399889,0.5360680000000001,0.9599486957983174,0.04605584519399889,0.5360680000000001,1.6581911764705828,11.06498917123465,143.29000000000002,1.6581911764705828,11.06498917123465,143.29000000000002,1.6581911764705828,11.06498917123465,143.29000000000002,0.0870945250000001,0.06689460529938658,0.28784,0.0870945250000001,0.06689460529938658,0.28784,0.0870945250000001,0.06689460529938658,0.28784
1,Waist,14,9,No Fall,0.9040672109243716,0.12249832382258444,2.4880679999999997,0.9040672109243716,0.12249832382258444,2.4880679999999997,0.9040672109243716,0.12249832382258444,2.4880679999999997,1.7986911764705804,33.46653408316776,915.46,1.7986911764705804,33.46653408316776,915.46,1.7986911764705804,33.46653408316776,915.46,0.2085037500000001,0.09949662933722138,0.57246,0.2085037500000001,0.09949662933722138,0.57246,0.2085037500000001,0.09949662933722138,0.57246
1,Waist,14,10,No Fall,0.8088453394957953,0.17263279185475902,0.7137,0.8088453394957953,0.17263279185475902,0.7137,0.8088453394957953,0.17263279185475902,0.7137,3.0836029411764727,10.962583851276634,141.19000000000003,3.0836029411764727,10.962583851276634,141.19000000000003,3.0836029411764727,10.962583851276634,141.19000000000003,0.20272708750000007,0.14327862860490276,0.42238,0.20272708750000007,0.14327862860490276,0.42238,0.20272708750000007,0.14327862860490276,0.42238
1,Waist,14,11,No Fall,0.926845738655463,0.12144871739194854,1.136308,0.926845738655463,0.12144871739194854,1.136308,0.926845738655463,0.12144871739194854,1.136308,1.477455882352936,18.232946987531207,185.85000000000002,1.477455882352936,18.232946987531207,185.85000000000002,1.477455882352936,18.232946987531207,185.85000000000002,0.060270787499999944,0.13973282100018686,0.49013999999999996,0.060270787499999944,0.13973282100018686,0.49013999999999996,0.060270787499999944,0.13973282100018686,0.49013999999999996
1,Waist,15,1,No Fall,0.8989662781512597,0.11038836323542128,2.007144,0.8989662781512597,0.11038836323542128,2.007144,0.8989662781512597,0.11038836323542128,2.007144,1.0592941176470563,8.956442370410768,132.23000000000002,1.0592941176470563,8.956442370410768,132.23000000000002,1.0592941176470563,8.956442370410768,132.23000000000002,0.18876707499999987,0.03687446703877892,0.21853999999999998,0.18876707499999987,0.03687446703877892,0.21853999999999998,0.18876707499999987,0.03687446703877892,0.21853999999999998
1,Waist,15,2,No Fall,0.8729339899159652,0.12984727990014094,2.4670840000000003,0.8729339899159652,0.12984727990014094,2.4670840000000003,0.8729339899159652,0.12984727990014094,2.4670840000000003,1.3471617647058851,9.639410484759097,155.68,1.3471617647058851,9.639410484759097,155.68,1.3471617647058851,9.639410484759097,155.68,0.19100217500000002,0.041784647973547716,0.26627999999999996,0.19100217500000002,0.041784647973547716,0.26627999999999996,0.19100217500000002,0.041784647973547716,0.26627999999999996
1,Waist,15,3,No Fall,0.749773964705882,0.14831925218513184,2.374608,0.749773964705882,0.14831925218513184,2.374608,0.749773964705882,0.14831925218513184,2.374608,0.6945882352941177,10.467725763648113,140.0,0.6945882352941177,10.467725763648113,140.0,0.6945882352941177,10.467725763648113,140.0,0.14062571249999986,0.06857352249673049,0.34845999999999994,0.14062571249999986,0.06857352249673049,0.34845999999999994,0.14062571249999986,0.06857352249673049,0.34845999999999994
1,Waist,16,1,No Fall,0.2122436563025222,0.6782592564527644,1.723616,0.2122436563025222,0.6782592564527644,1.723616,0.2122436563025222,0.6782592564527644,1.723616,-2.6177794117647055,22.372552636164457,185.85000000000002,-2.6177794117647055,22.372552636164457,185.85000000000002,-2.6177794117647055,22.372552636164457,185.85000000000002,0.20545647500000033,0.20986754153201562,0.6285999999999999,0.20545647500000033,0.20986754153201562,0.6285999999999999,0.20545647500000033,0.20986754153201562,0.6285999999999999
1,Waist,16,2,No Fall,0.3201047789915962,0.6321437730014658,1.677744,0.3201047789915962,0.6321437730014658,1.677744,0.3201047789915962,0.6321437730014658,1.677744,-1.3431764705882314,19.32717875903585,181.23000000000002,-1.3431764705882314,19.32717875903585,181.23000000000002,-1.3431764705882314,19.32717875903585,181.23000000000002,0.24436046249999993,0.21282717169611765,0.61208,0.24436046249999993,0.21282717169611765,0.61208,0.24436046249999993,0.21282717169611765,0.61208
1,Waist,16,3,No Fall,0.4085168462184869,0.5261883165964597,1.687504,0.4085168462184869,0.5261883165964597,1.687504,0.4085168462184869,0.5261883165964597,1.687504,-2.031882352941178,19.66427422407009,169.82000000000002,-2.031882352941178,19.66427422407009,169.82000000000002,-2.031882352941178,19.66427422407009,169.82000000000002,0.18248877499999996,0.16511204136548233,0.55048,0.18248877499999996,0.16511204136548233,0.55048,0.18248877499999996,0.16511204136548233,0.55048
1,Waist,18,1,No Fall,0.5579942705882347,0.38551258754700674,1.2456200000000002,0.5579942705882347,0.38551258754700674,1.2456200000000002,0.5579942705882347,0.38551258754700674,1.2456200000000002,1.2841176470588254,17.48853127328546,148.82,1.2841176470588254,17.48853127328546,148.82,1.2841176470588254,17.48853127328546,148.82,0.24072387499999925,0.18737412524076114,0.7389199999999999,0.24072387499999925,0.18737412524076114,0.7389199999999999,0.24072387499999925,0.18737412524076114,0.7389199999999999
1,Waist,18,2,No Fall,0.5170765470588232,0.38158883357639894,1.539396,0.5170765470588232,0.38158883357639894,1.539396,0.5170765470588232,0.38158883357639894,1.539396,3.728779411764706,18.847443908400585,178.22000000000003,3.728779411764706,18.847443908400585,178.22000000000003,3.728779411764706,18.847443908400585,178.22000000000003,0.24120013749999988,0.14751344763614613,0.65338,0.24120013749999988,0.14751344763614613,0.65338,0.24120013749999988,0.14751344763614613,0.65338
1,Waist,18,3,No Fall,0.4606298126050432,0.46907025790269374,1.849764,0.4606298126050432,0.46907025790269374,1.849764,0.4606298126050432,0.46907025790269374,1.849764,5.2350441176470754,26.760554583413214,292.53000000000003,5.2350441176470754,26.760554583413214,292.53000000000003,5.2350441176470754,26.760554583413214,292.53000000000003,0.24208134999999967,0.1632495974270383,0.7694399999999999,0.24208134999999967,0.1632495974270383,0.7694399999999999,0.24208134999999967,0.1632495974270383,0.7694399999999999
1,Waist,18,4,No Fall,0.5263439336134434,0.529693140863654,1.532564,0.5263439336134434,0.529693140863654,1.532564,0.5263439336134434,0.529693140863654,1.532564,4.904397058823532,16.918287622475702,246.40000000000003,4.904397058823532,16.918287622475702,246.40000000000003,4.904397058823532,16.918287622475702,246.40000000000003,0.25696300000000016,0.15933332114789242,0.6229999999999999,0.25696300000000016,0.15933332114789242,0.6229999999999999,0.25696300000000016,0.15933332114789242,0.6229999999999999
1,Waist,19,2,No Fall,0.8858926453781512,0.12025972128153904,1.323456,0.8858926453781512,0.12025972128153904,1.323456,0.8858926453781512,0.12025972128153904,1.323456,1.9554117647058809,19.665360854131485,121.73000000000002,1.9554117647058809,19.665360854131485,121.73000000000002,1.9554117647058809,19.665360854131485,121.73000000000002,0.5211753750000002,0.04575589394005194,0.18647999999999992,0.5211753750000002,0.04575589394005194,0.18647999999999992,0.5211753750000002,0.04575589394005194,0.18647999999999992
1,Waist,19,3,No Fall,0.9529510731092433,0.14067852918427004,1.429108,0.9529510731092433,0.14067852918427004,1.429108,0.9529510731092433,0.14067852918427004,1.429108,0.33139705882352805,19.66784430599323,140.35000000000002,0.33139705882352805,19.66784430599323,140.35000000000002,0.33139705882352805,19.66784430599323,140.35000000000002,0.5390785750000002,0.05922741902148734,0.39017999999999997,0.5390785750000002,0.05922741902148734,0.39017999999999997,0.5390785750000002,0.05922741902148734,0.39017999999999997
1,Waist,19,4,No Fall,0.9621140932773077,0.2291620218304988,2.218692,0.9621140932773077,0.2291620218304988,2.218692,0.9621140932773077,0.2291620218304988,2.218692,0.5612794117647064,29.297070740309135,226.66000000000003,0.5612794117647064,29.297070740309135,226.66000000000003,0.5612794117647064,29.297070740309135,226.66000000000003,0.4820823,0.0395969469352009,0.2632,0.4820823,0.0395969469352009,0.2632,0.4820823,0.0395969469352009,0.2632
1,Waist,19,5,No Fall,0.9815674546218497,0.1525176587471446,1.8019399999999999,0.9815674546218497,0.1525176587471446,1.8019399999999999,0.9815674546218497,0.1525176587471446,1.8019399999999999,1.0204852941176474,20.654842816830502,168.49,1.0204852941176474,20.654842816830502,168.49,1.0204852941176474,20.654842816830502,168.49,0.5718804874999995,0.034079603344448074,0.21069999999999994,0.5718804874999995,0.034079603344448074,0.21069999999999994,0.5718804874999995,0.034079603344448074,0.21069999999999994
1,Waist,19,6,No Fall,0.9799733554621831,0.24061018614371155,3.358416,0.9799733554621831,0.24061018614371155,3.358416,0.9799733554621831,0.24061018614371155,3.358416,1.8267941176470568,27.85780914838895,308.4200000000001,1.8267941176470568,27.85780914838895,308.4200000000001,1.8267941176470568,27.85780914838895,308.4200000000001,0.7788094125,0.16826840165350923,0.6270599999999998,0.7788094125,0.16826840165350923,0.6270599999999998,0.7788094125,0.16826840165350923,0.6270599999999998
1,Waist,20,1,No Fall,0.8856951386554619,0.12321051427546142,1.051884,0.8856951386554619,0.12321051427546142,1.051884,0.8856951386554619,0.12321051427546142,1.051884,0.7322499999999997,21.181392719106384,141.40000000000003,0.7322499999999997,21.181392719106384,141.40000000000003,0.7322499999999997,21.181392719106384,141.40000000000003,0.8771753374999985,0.041154287949696014,0.19375999999999993,0.8771753374999985,0.041154287949696014,0.19375999999999993,0.8771753374999985,0.041154287949696014,0.19375999999999993
1,Waist,20,2,No Fall,0.9440536336134439,0.17874442079924371,1.443504,0.9440536336134439,0.17874442079924371,1.443504,0.9440536336134439,0.17874442079924371,1.443504,-1.5937499999999938,28.69436595506232,176.82000000000002,-1.5937499999999938,28.69436595506232,176.82000000000002,-1.5937499999999938,28.69436595506232,176.82000000000002,0.7715031624999992,0.20061270726251523,0.6066199999999999,0.7715031624999992,0.20061270726251523,0.6066199999999999,0.7715031624999992,0.20061270726251523,0.6066199999999999
1,Waist,20,3,No Fall,0.9576433571428562,0.16830973120764817,1.243912,0.9576433571428562,0.16830973120764817,1.243912,0.9576433571428562,0.16830973120764817,1.243912,0.37666176470588225,25.44946390723534,110.11000000000001,0.37666176470588225,25.44946390723534,110.11000000000001,0.37666176470588225,25.44946390723534,110.11000000000001,0.9033246249999991,0.04559020515267551,0.22063999999999995,0.9033246249999991,0.04559020515267551,0.22063999999999995,0.9033246249999991,0.04559020515267551,0.22063999999999995
1,Waist,20,5,No Fall,0.9754111705882358,0.19874114380813626,1.6753040000000001,0.9754111705882358,0.19874114380813626,1.6753040000000001,0.9754111705882358,0.19874114380813626,1.6753040000000001,1.8627941176470588,29.14947997943887,171.15000000000003,1.8627941176470588,29.14947997943887,171.15000000000003,1.8627941176470588,29.14947997943887,171.15000000000003,0.9013323375,0.07035801056786636,0.34944,0.9013323375,0.07035801056786636,0.34944,0.9013323375,0.07035801056786636,0.34944
1,Waist,20,6,No Fall,0.9816248151260528,0.3542035141948577,3.358416,0.9816248151260528,0.3542035141948577,3.358416,0.9816248151260528,0.3542035141948577,3.358416,2.1239117647058774,41.15788108500264,308.4200000000001,2.1239117647058774,41.15788108500264,308.4200000000001,2.1239117647058774,41.15788108500264,308.4200000000001,0.5203261875000004,0.039394629805352646,0.25003999999999993,0.5203261875000004,0.039394629805352646,0.25003999999999993,0.5203261875000004,0.039394629805352646,0.25003999999999993
1,Waist,21,1,No Fall,0.8898564151260515,0.07946528364895922,0.7949519999999999,0.8898564151260515,0.07946528364895922,0.7949519999999999,0.8898564151260515,0.07946528364895922,0.7949519999999999,-2.292308823529414,16.30214559960341,110.39000000000001,-2.292308823529414,16.30214559960341,110.39000000000001,-2.292308823529414,16.30214559960341,110.39000000000001,0.5745374250000002,0.07815183333760102,0.44394,0.5745374250000002,0.07815183333760102,0.44394,0.5745374250000002,0.07815183333760102,0.44394
1,Waist,21,2,No Fall,0.9679603025210078,0.13347510697027593,1.5884399999999999,0.9679603025210078,0.13347510697027593,1.5884399999999999,0.9679603025210078,0.13347510697027593,1.5884399999999999,0.005632352941178145,17.417480979892932,126.98000000000002,0.005632352941178145,17.417480979892932,126.98000000000002,0.005632352941178145,17.417480979892932,126.98000000000002,0.6030566500000003,0.08867362075422175,0.4881799999999999,0.6030566500000003,0.08867362075422175,0.4881799999999999,0.6030566500000003,0.08867362075422175,0.4881799999999999
1,Waist,21,3,No Fall,0.9573955126050442,0.1130108714724327,1.138748,0.9573955126050442,0.1130108714724327,1.138748,0.9573955126050442,0.1130108714724327,1.138748,0.2335441176470572,17.929450450788224,119.00000000000001,0.2335441176470572,17.929450450788224,119.00000000000001,0.2335441176470572,17.929450450788224,119.00000000000001,0.673065137499999,0.1792854907231649,0.5090399999999999,0.673065137499999,0.1792854907231649,0.5090399999999999,0.673065137499999,0.1792854907231649,0.5090399999999999
1,Waist,21,4,No Fall,0.9602851184873946,0.181717362903077,1.848056,0.9602851184873946,0.181717362903077,1.848056,0.9602851184873946,0.181717362903077,1.848056,1.1710588235294077,24.782034605359733,171.99,1.1710588235294077,24.782034605359733,171.99,1.1710588235294077,24.782034605359733,171.99,0.8668844625000003,0.039939123980770014,0.21476000000000006,0.8668844625000003,0.039939123980770014,0.21476000000000006,0.8668844625000003,0.039939123980770014,0.21476000000000006
1,Waist,21,5,No Fall,0.9812324159663842,0.14682497353771157,1.5203639999999998,0.9812324159663842,0.14682497353771157,1.5203639999999998,0.9812324159663842,0.14682497353771157,1.5203639999999998,1.0436029411764804,18.91214830141098,146.3,1.0436029411764804,18.91214830141098,146.3,1.0436029411764804,18.91214830141098,146.3,0.9024371125,0.04058211773783371,0.22372000000000003,0.9024371125,0.04058211773783371,0.22372000000000003,0.9024371125,0.04058211773783371,0.22372000000000003
1,Waist,22,1,No Fall,0.9713984470588269,0.3073526210675405,2.0259319999999996,0.9713984470588269,0.3073526210675405,2.0259319999999996,0.9713984470588269,0.3073526210675405,2.0259319999999996,-0.7633970588235292,40.61186339439629,218.33000000000004,-0.7633970588235292,40.61186339439629,218.33000000000004,-0.7633970588235292,40.61186339439629,218.33000000000004,0.8046236624999976,0.1470833328681086,0.66402,0.8046236624999976,0.1470833328681086,0.66402,0.8046236624999976,0.1470833328681086,0.66402
1,Waist,22,2,No Fall,0.9747181798319358,0.3673017279721103,2.417796,0.9747181798319358,0.3673017279721103,2.417796,0.9747181798319358,0.3673017279721103,2.417796,0.7509999999999969,47.324751970542245,283.15000000000003,0.7509999999999969,47.324751970542245,283.15000000000003,0.7509999999999969,47.324751970542245,283.15000000000003,0.6680240874999993,0.1811077603184692,0.61488,0.6680240874999993,0.1811077603184692,0.61488,0.6680240874999993,0.1811077603184692,0.61488
1,Waist,22,3,No Fall,0.9841396554621885,0.4025938716328644,2.470256,0.9841396554621885,0.4025938716328644,2.470256,0.9841396554621885,0.4025938716328644,2.470256,2.49758823529412,44.28984497270242,269.36,2.49758823529412,44.28984497270242,269.36,2.49758823529412,44.28984497270242,269.36,0.5448674874999997,0.085559053942333,0.5782,0.5448674874999997,0.085559053942333,0.5782,0.5448674874999997,0.085559053942333,0.5782
1,Waist,23,1,No Fall,0.9625897907563031,0.37127727428856144,6.2281,0.9625897907563031,0.37127727428856144,6.2281,0.9625897907563031,0.37127727428856144,6.2281,1.100838235294116,34.43439731397741,395.71000000000004,1.100838235294116,34.43439731397741,395.71000000000004,1.100838235294116,34.43439731397741,395.71000000000004,0.8338517250000002,0.1168132404898753,0.44057999999999986,0.8338517250000002,0.1168132404898753,0.44057999999999986,0.8338517250000002,0.1168132404898753,0.44057999999999986
1,Waist,23,3,No Fall,0.9793924714285729,0.3900296848975294,5.0081,0.9793924714285729,0.3900296848975294,5.0081,0.9793924714285729,0.3900296848975294,5.0081,2.190735294117651,38.05850537305167,560.4200000000001,2.190735294117651,38.05850537305167,560.4200000000001,2.190735294117651,38.05850537305167,560.4200000000001,0.7617457750000003,0.1994838058443486,0.6384,0.7617457750000003,0.1994838058443486,0.6384,0.7617457750000003,0.1994838058443486,0.6384
1,Waist,24,1,No Fall,0.9741225327731086,0.8822509347599486,3.9718319999999996,0.9741225327731086,0.8822509347599486,3.9718319999999996,0.9741225327731086,0.8822509347599486,3.9718319999999996,-1.9347058823529437,45.668578960869304,354.76,-1.9347058823529437,45.668578960869304,354.76,-1.9347058823529437,45.668578960869304,354.76,0.7693452375000001,0.20316864958188466,0.6342,0.7693452375000001,0.20316864958188466,0.6342,0.7693452375000001,0.20316864958188466,0.6342
1,Waist,25,1,No Fall,0.9675896890756287,0.9432497985594634,4.96052,0.9675896890756287,0.9432497985594634,4.96052,0.9675896890756287,0.9432497985594634,4.96052,-3.2694999999999914,51.002819829032134,466.62,-3.2694999999999914,51.002819829032134,466.62,-3.2694999999999914,51.002819829032134,466.62,0.706823425,0.21106117787331866,0.64456,0.706823425,0.21106117787331866,0.64456,0.706823425,0.21106117787331866,0.64456
1,Waist,26,1,No Fall,0.9568573798319329,0.21257239394565342,4.174595999999999,0.9568573798319329,0.21257239394565342,4.174595999999999,0.9568573798319329,0.21257239394565342,4.174595999999999,1.4942205882352766,15.510734886644293,340.48,1.4942205882352766,15.510734886644293,340.48,1.4942205882352766,15.510734886644293,340.48,0.042609349999999935,0.013477488258522042,0.1533,0.042609349999999935,0.013477488258522042,0.1533,0.042609349999999935,0.013477488258522042,0.1533
1,Waist,26,2,No Fall,0.9522656689075623,0.2066254753704022,4.401516,0.9522656689075623,0.2066254753704022,4.401516,0.9522656689075623,0.2066254753704022,4.401516,-0.1962941176470587,26.789278773472468,421.82000000000005,-0.1962941176470587,26.789278773472468,421.82000000000005,-0.1962941176470587,26.789278773472468,421.82000000000005,0.20250002500000014,0.16676370024175913,0.5361999999999999,0.20250002500000014,0.16676370024175913,0.5361999999999999,0.20250002500000014,0.16676370024175913,0.5361999999999999
1,Waist,26,3,No Fall,0.9615529445378175,0.18703256782012795,4.412496,0.9615529445378175,0.18703256782012795,4.412496,0.9615529445378175,0.18703256782012795,4.412496,1.3899411764705867,12.152663964490127,328.16,1.3899411764705867,12.152663964490127,328.16,1.3899411764705867,12.152663964490127,328.16,0.049423062499999997,0.010043480824047423,0.11452,0.049423062499999997,0.010043480824047423,0.11452,0.049423062499999997,0.010043480824047423,0.11452
1,Waist,26,4,No Fall,0.9543211638655481,0.23305638745874147,3.721,0.9543211638655481,0.23305638745874147,3.721,0.9543211638655481,0.23305638745874147,3.721,-4.5737794117647015,32.70072937475188,488.39000000000004,-4.5737794117647015,32.70072937475188,488.39000000000004,-4.5737794117647015,32.70072937475188,488.39000000000004,0.22403587499999983,0.17465596032853647,0.5590199999999999,0.22403587499999983,0.17465596032853647,0.5590199999999999,0.22403587499999983,0.17465596032853647,0.5590199999999999
1,Waist,27,1,No Fall,0.9577210680672282,0.22015472898473654,4.212904,0.9577210680672282,0.22015472898473654,4.212904,0.9577210680672282,0.22015472898473654,4.212904,1.4062941176470527,15.05522572142504,462.9100000000001,1.4062941176470527,15.05522572142504,462.9100000000001,1.4062941176470527,15.05522572142504,462.9100000000001,0.03897704999999995,0.015371796003321498,0.09533999999999998,0.03897704999999995,0.015371796003321498,0.09533999999999998,0.03897704999999995,0.015371796003321498,0.09533999999999998
1,Waist,27,2,No Fall,0.9520719042016811,0.2668010230942519,5.599311999999999,0.9520719042016811,0.2668010230942519,5.599311999999999,0.9520719042016811,0.2668010230942519,5.599311999999999,-4.1491323529411765,28.433975294049418,567.07,-4.1491323529411765,28.433975294049418,567.07,-4.1491323529411765,28.433975294049418,567.07,0.23010496249999982,0.12015364822639553,0.5251399999999999,0.23010496249999982,0.12015364822639553,0.5251399999999999,0.23010496249999982,0.12015364822639553,0.5251399999999999
1,Waist,27,3,No Fall,0.9587995378151312,0.2391228504517124,4.791428,0.9587995378151312,0.2391228504517124,4.791428,0.9587995378151312,0.2391228504517124,4.791428,1.4128823529411705,18.14189008821047,423.01,1.4128823529411705,18.14189008821047,423.01,1.4128823529411705,18.14189008821047,423.01,0.04501034999999997,0.013872660904738557,0.08988,0.04501034999999997,0.013872660904738557,0.08988,0.04501034999999997,0.013872660904738557,0.08988
1,Waist,27,4,No Fall,0.9469058705882339,0.2803086243917027,4.853648,0.9469058705882339,0.2803086243917027,4.853648,0.9469058705882339,0.2803086243917027,4.853648,2.8850147058823494,33.537730639138346,483.9100000000001,2.8850147058823494,33.537730639138346,483.9100000000001,2.8850147058823494,33.537730639138346,483.9100000000001,0.22954907499999955,0.1813532833587802,0.6169799999999999,0.22954907499999955,0.1813532833587802,0.6169799999999999,0.22954907499999955,0.1813532833587802,0.6169799999999999
1,Waist,28,1,No Fall,0.9016217260504227,0.12913944612099046,0.588772,0.9016217260504227,0.12913944612099046,0.588772,0.9016217260504227,0.12913944612099046,0.588772,1.4333529411764532,6.54734967989792,63.42,1.4333529411764532,6.54734967989792,63.42,1.4333529411764532,6.54734967989792,63.42,0.060594975000000016,0.038833306294957716,0.18087999999999999,0.060594975000000016,0.038833306294957716,0.18087999999999999,0.060594975000000016,0.038833306294957716,0.18087999999999999
1,Waist,28,2,No Fall,0.9341926504201701,0.12882700962368268,0.877424,0.9341926504201701,0.12882700962368268,0.877424,0.9341926504201701,0.12882700962368268,0.877424,2.067985294117642,21.95820922335167,150.15000000000003,2.067985294117642,21.95820922335167,150.15000000000003,2.067985294117642,21.95820922335167,150.15000000000003,0.19126983750000007,0.12063925469797293,0.43582,0.19126983750000007,0.12063925469797293,0.43582,0.19126983750000007,0.12063925469797293,0.43582
1,Waist,28,3,No Fall,0.9376842596638649,0.04286413922129791,0.28059999999999996,0.9376842596638649,0.04286413922129791,0.28059999999999996,0.9376842596638649,0.04286413922129791,0.28059999999999996,1.6903088235294135,9.625809441609729,83.37,1.6903088235294135,9.625809441609729,83.37,1.6903088235294135,9.625809441609729,83.37,0.0679584500000001,0.06332346075131606,0.29147999999999996,0.0679584500000001,0.06332346075131606,0.29147999999999996,0.0679584500000001,0.06332346075131606,0.29147999999999996
1,Waist,29,1,No Fall,0.9680079235294121,0.1098673854351394,1.004304,0.9680079235294121,0.1098673854351394,1.004304,0.9680079235294121,0.1098673854351394,1.004304,1.0973382352941163,16.035483681958585,115.43,1.0973382352941163,16.035483681958585,115.43,1.0973382352941163,16.035483681958585,115.43,0.4237250499999995,0.05299797807036808,0.30492,0.4237250499999995,0.05299797807036808,0.30492,0.4237250499999995,0.05299797807036808,0.30492
1,Waist,29,2,No Fall,0.9776093235294077,0.11628290111727166,0.9818559999999998,0.9776093235294077,0.11628290111727166,0.9818559999999998,0.9776093235294077,0.11628290111727166,0.9818559999999998,0.8860294117647084,15.996321309318212,105.77000000000001,0.8860294117647084,15.996321309318212,105.77000000000001,0.8860294117647084,15.996321309318212,105.77000000000001,0.46548503749999914,0.05682265038143966,0.31598,0.46548503749999914,0.05682265038143966,0.31598,0.46548503749999914,0.05682265038143966,0.31598
1,Waist,30,1,No Fall,0.9699210168067222,0.1611212061479257,1.2429359999999998,0.9699210168067222,0.1611212061479257,1.2429359999999998,0.9699210168067222,0.1611212061479257,1.2429359999999998,2.651205882352941,21.57489659186868,117.95000000000002,2.651205882352941,21.57489659186868,117.95000000000002,2.651205882352941,21.57489659186868,117.95000000000002,0.30875949999999996,0.15632545118415617,0.57456,0.30875949999999996,0.15632545118415617,0.57456,0.30875949999999996,0.15632545118415617,0.57456
1,Waist,30,2,No Fall,0.9720141882352937,0.1876681761294613,1.42008,0.9720141882352937,0.1876681761294613,1.42008,0.9720141882352937,0.1876681761294613,1.42008,1.203235294117646,24.851995385332376,126.98000000000002,1.203235294117646,24.851995385332376,126.98000000000002,1.203235294117646,24.851995385332376,126.98000000000002,0.3794120750000001,0.1890019039520642,0.8786399999999999,0.3794120750000001,0.1890019039520642,0.8786399999999999,0.3794120750000001,0.1890019039520642,0.8786399999999999
1,Waist,31,1,No Fall,0.9671609974789919,0.09630166954119213,0.825696,0.9671609974789919,0.09630166954119213,0.825696,0.9671609974789919,0.09630166954119213,0.825696,1.5863235294117524,13.806352671258313,103.60000000000001,1.5863235294117524,13.806352671258313,103.60000000000001,1.5863235294117524,13.806352671258313,103.60000000000001,0.3161269125,0.14970820999215198,0.4739,0.3161269125,0.14970820999215198,0.4739,0.3161269125,0.14970820999215198,0.4739
1,Waist,31,2,No Fall,0.9730072579831915,0.14720351186978622,1.3717679999999999,0.9730072579831915,0.14720351186978622,1.3717679999999999,0.9730072579831915,0.14720351186978622,1.3717679999999999,0.9546176470588235,18.47441883335196,137.48000000000002,0.9546176470588235,18.47441883335196,137.48000000000002,0.9546176470588235,18.47441883335196,137.48000000000002,0.28712215,0.11049451319536836,0.52738,0.28712215,0.11049451319536836,0.52738,0.28712215,0.11049451319536836,0.52738
1,Waist,32,1,No Fall,0.9771271159663854,0.13736595564943718,1.1868159999999999,0.9771271159663854,0.13736595564943718,1.1868159999999999,0.9771271159663854,0.13736595564943718,1.1868159999999999,1.4197352941176506,10.431086563621578,161.42000000000002,1.4197352941176506,10.431086563621578,161.42000000000002,1.4197352941176506,10.431086563621578,161.42000000000002,0.10419832500000023,0.044071508146855315,0.27887999999999996,0.10419832500000023,0.044071508146855315,0.27887999999999996,0.10419832500000023,0.044071508146855315,0.27887999999999996
1,Waist,32,2,No Fall,0.9781549403361333,0.18173550124460455,1.414224,0.9781549403361333,0.18173550124460455,1.414224,0.9781549403361333,0.18173550124460455,1.414224,1.1704558823529403,12.501634259301378,128.73000000000002,1.1704558823529403,12.501634259301378,128.73000000000002,1.1704558823529403,12.501634259301378,128.73000000000002,0.3977928499999994,0.05098014611040653,0.33698,0.3977928499999994,0.05098014611040653,0.33698,0.3977928499999994,0.05098014611040653,0.33698
1,Waist,33,1,No Fall,0.9866671058823544,0.1972816341917387,1.4764439999999999,0.9866671058823544,0.1972816341917387,1.4764439999999999,0.9866671058823544,0.1972816341917387,1.4764439999999999,0.6199852941176476,16.57381753090057,194.18000000000004,0.6199852941176476,16.57381753090057,194.18000000000004,0.6199852941176476,16.57381753090057,194.18000000000004,0.26659158749999956,0.14376116830154267,0.5119799999999999,0.26659158749999956,0.14376116830154267,0.5119799999999999,0.26659158749999956,0.14376116830154267,0.5119799999999999
1,Waist,33,2,No Fall,0.9839931529411734,0.2342311702558037,1.6750599999999998,0.9839931529411734,0.2342311702558037,1.6750599999999998,0.9839931529411734,0.2342311702558037,1.6750599999999998,1.2043088235294117,16.397313497012785,180.95000000000005,1.2043088235294117,16.397313497012785,180.95000000000005,1.2043088235294117,16.397313497012785,180.95000000000005,0.2644646375,0.17945185821308351,0.5732999999999999,0.2644646375,0.17945185821308351,0.5732999999999999,0.2644646375,0.17945185821308351,0.5732999999999999
1,Waist,34,1,No Fall,0.9828082151260518,0.1539051015930892,1.586976,0.9828082151260518,0.1539051015930892,1.586976,0.9828082151260518,0.1539051015930892,1.586976,0.9060735294117664,13.472879459245473,155.61,0.9060735294117664,13.472879459245473,155.61,0.9060735294117664,13.472879459245473,155.61,0.24421004999999976,0.17649258613635355,0.50708,0.24421004999999976,0.17649258613635355,0.50708,0.24421004999999976,0.17649258613635355,0.50708
1,Waist,34,2,No Fall,0.9826970310924423,0.15699415508124842,1.3454160000000002,0.9826970310924423,0.15699415508124842,1.3454160000000002,0.9826970310924423,0.15699415508124842,1.3454160000000002,1.4820588235294063,11.291780197380707,118.79000000000002,1.4820588235294063,11.291780197380707,118.79000000000002,1.4820588235294063,11.291780197380707,118.79000000000002,0.25218795000000005,0.2075997847179322,0.67802,0.25218795000000005,0.2075997847179322,0.67802,0.25218795000000005,0.2075997847179322,0.67802
1,Waist,35,1,No Fall,0.9830318647058801,0.5562825125451236,3.800056,0.9830318647058801,0.5562825125451236,3.800056,0.9830318647058801,0.5562825125451236,3.800056,1.7586029411764708,49.115289765185416,494.97,1.7586029411764708,49.115289765185416,494.97,1.7586029411764708,49.115289765185416,494.97,0.2918753250000001,0.17410088667021922,0.67074,0.2918753250000001,0.17410088667021922,0.67074,0.2918753250000001,0.17410088667021922,0.67074
1,Waist,35,2,No Fall,0.9865200907563014,0.669683899415722,4.391024,0.9865200907563014,0.669683899415722,4.391024,0.9865200907563014,0.669683899415722,4.391024,1.7669705882352904,52.11502505639503,432.39000000000004,1.7669705882352904,52.11502505639503,432.39000000000004,1.7669705882352904,52.11502505639503,432.39000000000004,0.3660295624999991,0.18219595862256396,0.7698599999999999,0.3660295624999991,0.18219595862256396,0.7698599999999999,0.3660295624999991,0.18219595862256396,0.7698599999999999
1,Waist,36,1,No Fall,0.991935147899159,0.6630971193629605,4.6923639999999995,0.991935147899159,0.6630971193629605,4.6923639999999995,0.991935147899159,0.6630971193629605,4.6923639999999995,-0.05341176470588286,43.13431115896026,368.90000000000003,-0.05341176470588286,43.13431115896026,368.90000000000003,-0.05341176470588286,43.13431115896026,368.90000000000003,0.2406415374999998,0.1619676150425996,0.56364,0.2406415374999998,0.1619676150425996,0.56364,0.2406415374999998,0.1619676150425996,0.56364
1,Waist,36,2,No Fall,0.9916522924369751,0.664608381628226,4.406884,0.9916522924369751,0.664608381628226,4.406884,0.9916522924369751,0.664608381628226,4.406884,0.42119117647058857,45.52700507755129,429.38000000000005,0.42119117647058857,45.52700507755129,429.38000000000005,0.42119117647058857,45.52700507755129,429.38000000000005,0.19390586249999955,0.16734325835301422,0.5893999999999999,0.19390586249999955,0.16734325835301422,0.5893999999999999,0.19390586249999955,0.16734325835301422,0.5893999999999999
1,Waist,37,1,No Fall,0.9838887352941154,0.027193940095764212,0.3293999999999999,0.9838887352941154,0.027193940095764212,0.3293999999999999,0.9838887352941154,0.027193940095764212,0.3293999999999999,0.903132352941177,3.1719757192587945,37.52,0.903132352941177,3.1719757192587945,37.52,0.903132352941177,3.1719757192587945,37.52,0.22510661250000027,0.03949421830882002,0.21209999999999998,0.22510661250000027,0.03949421830882002,0.21209999999999998,0.22510661250000027,0.03949421830882002,0.21209999999999998
1,Waist,37,2,No Fall,0.9836617025210077,0.028076594458128438,0.499224,0.9836617025210077,0.028076594458128438,0.499224,0.9836617025210077,0.028076594458128438,0.499224,0.7700588235294122,4.028255665073867,82.67000000000002,0.7700588235294122,4.028255665073867,82.67000000000002,0.7700588235294122,4.028255665073867,82.67000000000002,0.2610591375,0.06028286489443767,0.33474,0.2610591375,0.06028286489443767,0.33474,0.2610591375,0.06028286489443767,0.33474
1,Waist,38,1,No Fall,0.9789296403361359,0.07634935183818249,1.25294,0.9789296403361359,0.07634935183818249,1.25294,0.9789296403361359,0.07634935183818249,1.25294,0.9559705882352912,9.22115759816954,150.22000000000003,0.9559705882352912,9.22115759816954,150.22000000000003,0.9559705882352912,9.22115759816954,150.22000000000003,0.22680700000000012,0.09118281287804587,0.52808,0.22680700000000012,0.09118281287804587,0.52808,0.22680700000000012,0.09118281287804587,0.52808
1,Waist,38,2,No Fall,0.9711855621848723,0.07824965765308957,2.2020999999999997,0.9711855621848723,0.07824965765308957,2.2020999999999997,0.9711855621848723,0.07824965765308957,2.2020999999999997,1.2926911764705897,7.203912758388644,126.49000000000001,1.2926911764705897,7.203912758388644,126.49000000000001,1.2926911764705897,7.203912758388644,126.49000000000001,0.23911247499999988,0.07353784144712375,0.34985999999999995,0.23911247499999988,0.07353784144712375,0.34985999999999995,0.23911247499999988,0.07353784144712375,0.34985999999999995
1,Waist,39,1,No Fall,0.9762199588235296,0.027268840967130798,0.41968000000000005,0.9762199588235296,0.027268840967130798,0.41968000000000005,0.9762199588235296,0.027268840967130798,0.41968000000000005,0.8731323529411745,3.027945092086935,38.290000000000006,0.8731323529411745,3.027945092086935,38.290000000000006,0.8731323529411745,3.027945092086935,38.290000000000006,0.21295662500000037,0.06025543748244428,0.28994,0.21295662500000037,0.06025543748244428,0.28994,0.21295662500000037,0.06025543748244428,0.28994
1,Waist,39,2,No Fall,0.9750590621848769,0.044108800828370445,0.693204,0.9750590621848769,0.044108800828370445,0.693204,0.9750590621848769,0.044108800828370445,0.693204,0.6357500000000037,6.481271502930888,98.00000000000001,0.6357500000000037,6.481271502930888,98.00000000000001,0.6357500000000037,6.481271502930888,98.00000000000001,0.20749435000000013,0.08378523866089663,0.4109,0.20749435000000013,0.08378523866089663,0.4109,0.20749435000000013,0.08378523866089663,0.4109
1,Waist,40,1,No Fall,0.9836169008403375,0.09734601400574948,1.881484,0.9836169008403375,0.09734601400574948,1.881484,0.9836169008403375,0.09734601400574948,1.881484,1.1161176470588225,10.821522324519353,172.55,1.1161176470588225,10.821522324519353,172.55,1.1161176470588225,10.821522324519353,172.55,0.2769683874999999,0.08985431578500043,0.38892,0.2769683874999999,0.08985431578500043,0.38892,0.2769683874999999,0.08985431578500043,0.38892
1,Waist,40,2,No Fall,0.9847273571428576,0.07102171663879761,1.3054,0.9847273571428576,0.07102171663879761,1.3054,0.9847273571428576,0.07102171663879761,1.3054,1.0435294117647038,11.179569233690033,202.58,1.0435294117647038,11.179569233690033,202.58,1.0435294117647038,11.179569233690033,202.58,0.24628686249999995,0.10961276655013925,0.6966399999999999,0.24628686249999995,0.10961276655013925,0.6966399999999999,0.24628686249999995,0.10961276655013925,0.6966399999999999
1,Waist,43,1,No Fall,0.9684036033613448,0.6714503347524908,4.352472,0.9684036033613448,0.6714503347524908,4.352472,0.9684036033613448,0.6714503347524908,4.352472,-0.6882647058823522,33.88761113281394,359.6600000000001,-0.6882647058823522,33.88761113281394,359.6600000000001,-0.6882647058823522,33.88761113281394,359.6600000000001,0.5435141249999991,0.06362758186288354,0.48285999999999996,0.5435141249999991,0.06362758186288354,0.48285999999999996,0.5435141249999991,0.06362758186288354,0.48285999999999996
1,Waist,43,2,No Fall,0.9790197050420164,0.6418601570728533,4.8434,0.9790197050420164,0.6418601570728533,4.8434,0.9790197050420164,0.6418601570728533,4.8434,1.2651029411764714,31.30580714416396,262.64,1.2651029411764714,31.30580714416396,262.64,1.2651029411764714,31.30580714416396,262.64,0.8940784125000003,0.10302693653973616,0.5488000000000001,0.8940784125000003,0.10302693653973616,0.5488000000000001,0.8940784125000003,0.10302693653973616,0.5488000000000001
1,Waist,43,3,No Fall,0.9875324344537793,0.6609643610811071,4.680408,0.9875324344537793,0.6609643610811071,4.680408,0.9875324344537793,0.6609643610811071,4.680408,1.1863970588235313,33.12467489358887,331.31000000000006,1.1863970588235313,33.12467489358887,331.31000000000006,1.1863970588235313,33.12467489358887,331.31000000000006,0.5909001875000002,0.1640537724859798,0.5692400000000001,0.5909001875000002,0.1640537724859798,0.5692400000000001,0.5909001875000002,0.1640537724859798,0.5692400000000001
1,Waist,44,1,No Fall,0.9650512689075631,0.6071014149640617,4.098224,0.9650512689075631,0.6071014149640617,4.098224,0.9650512689075631,0.6071014149640617,4.098224,0.0701764705882352,29.24767336020142,306.11,0.0701764705882352,29.24767336020142,306.11,0.0701764705882352,29.24767336020142,306.11,0.6478441375000004,0.160639541141004,0.4352599999999999,0.6478441375000004,0.160639541141004,0.4352599999999999,0.6478441375000004,0.160639541141004,0.4352599999999999
1,Waist,44,2,No Fall,0.9778736226890743,0.6028368379350517,3.936696,0.9778736226890743,0.6028368379350517,3.936696,0.9778736226890743,0.6028368379350517,3.936696,1.6524264705882303,31.55675979123358,228.76000000000002,1.6524264705882303,31.55675979123358,228.76000000000002,1.6524264705882303,31.55675979123358,228.76000000000002,0.8958239499999985,0.04853227726583493,0.2304400000000001,0.8958239499999985,0.04853227726583493,0.2304400000000001,0.8958239499999985,0.04853227726583493,0.2304400000000001
1,Waist,44,3,No Fall,0.9812178067226899,0.6473332950520786,4.602328,0.9812178067226899,0.6473332950520786,4.602328,0.9812178067226899,0.6473332950520786,4.602328,0.5159117647058821,34.73081258073312,287.49,0.5159117647058821,34.73081258073312,287.49,0.5159117647058821,34.73081258073312,287.49,0.8699507249999996,0.13482897646846564,0.51506,0.8699507249999996,0.13482897646846564,0.51506,0.8699507249999996,0.13482897646846564,0.51506
1,Waist,101,1,Fall,0.4825787915966368,0.45537957785868244,6.292028,0.4825787915966368,0.45537957785868244,6.292028,0.4825787915966368,0.45537957785868244,6.292028,1.5029558823529034,25.13411635069287,354.90000000000003,1.5029558823529034,25.13411635069287,354.90000000000003,1.5029558823529034,25.13411635069287,354.90000000000003,1.1233423250000003,0.22890557846632414,0.8099000000000001,1.1233423250000003,0.22890557846632414,0.8099000000000001,1.1233423250000003,0.22890557846632414,0.8099000000000001
1,Waist,101,2,Fall,0.5036489605041962,0.5125424984390482,4.436896,0.5036489605041962,0.5125424984390482,4.436896,0.5036489605041962,0.5125424984390482,4.436896,3.2078088235294273,32.95721388748562,856.0300000000001,3.2078088235294273,32.95721388748562,856.0300000000001,3.2078088235294273,32.95721388748562,856.0300000000001,1.0306302125000006,0.09260267746872289,0.47795999999999983,1.0306302125000006,0.09260267746872289,0.47795999999999983,1.0306302125000006,0.09260267746872289,0.47795999999999983
1,Waist,102,1,Fall,0.7920190277310929,0.3333346005471153,3.573868,0.7920190277310929,0.3333346005471153,3.573868,0.7920190277310929,0.3333346005471153,3.573868,-0.2930588235294111,27.157688893490587,440.65000000000003,-0.2930588235294111,27.157688893490587,440.65000000000003,-0.2930588235294111,27.157688893490587,440.65000000000003,0.9968835625000007,0.21383004316198806,0.8483999999999999,0.9968835625000007,0.21383004316198806,0.8483999999999999,0.9968835625000007,0.21383004316198806,0.8483999999999999
1,Waist,102,2,Fall,0.7880574621848757,0.37425934310860953,2.414868,0.7880574621848757,0.37425934310860953,2.414868,0.7880574621848757,0.37425934310860953,2.414868,0.08123529411764352,34.3897580029652,499.52000000000004,0.08123529411764352,34.3897580029652,499.52000000000004,0.08123529411764352,34.3897580029652,499.52000000000004,1.012720187499999,0.20935204122827136,0.8044399999999999,1.012720187499999,0.20935204122827136,0.8044399999999999,1.012720187499999,0.20935204122827136,0.8044399999999999
1,Waist,106,1,Fall,0.8003029302520992,0.43366866461277737,3.9223,0.8003029302520992,0.43366866461277737,3.9223,0.8003029302520992,0.43366866461277737,3.9223,-0.7882794117647064,25.07089936980395,247.45000000000005,-0.7882794117647064,25.07089936980395,247.45000000000005,-0.7882794117647064,25.07089936980395,247.45000000000005,0.8520895249999999,0.15561379903403635,0.6129199999999999,0.8520895249999999,0.15561379903403635,0.6129199999999999,0.8520895249999999,0.15561379903403635,0.6129199999999999
1,Waist,106,2,Fall,0.8262107067226878,0.3163817746149603,2.454884,0.8262107067226878,0.3163817746149603,2.454884,0.8262107067226878,0.3163817746149603,2.454884,-0.29507352941175835,43.36285054358191,828.8000000000001,-0.29507352941175835,43.36285054358191,828.8000000000001,-0.29507352941175835,43.36285054358191,828.8000000000001,0.838153312500001,0.248030333635887,0.9500399999999999,0.838153312500001,0.248030333635887,0.9500399999999999,0.838153312500001,0.248030333635887,0.9500399999999999
1,Waist,106,3,Fall,0.7871692714285703,0.4556034906351125,7.499584,0.7871692714285703,0.4556034906351125,7.499584,0.7871692714285703,0.4556034906351125,7.499584,2.5194117647058825,26.073248248912257,526.12,2.5194117647058825,26.073248248912257,526.12,2.5194117647058825,26.073248248912257,526.12,0.8282622249999991,0.1945883131622026,0.68334,0.8282622249999991,0.1945883131622026,0.68334,0.8282622249999991,0.1945883131622026,0.68334
1,Waist,107,4,Fall,0.4495177142857179,0.5354151599811936,3.487248,0.4495177142857179,0.5354151599811936,3.487248,0.4495177142857179,0.5354151599811936,3.487248,-2.574985294117637,24.204664484584338,239.05000000000004,-2.574985294117637,24.204664484584338,239.05000000000004,-2.574985294117637,24.204664484584338,239.05000000000004,0.7593963124999995,0.15517353226742667,0.53676,0.7593963124999995,0.15517353226742667,0.53676,0.7593963124999995,0.15517353226742667,0.53676
1,Waist,108,1,Fall,0.665488214285713,0.5101128092960657,4.47496,0.665488214285713,0.5101128092960657,4.47496,0.665488214285713,0.5101128092960657,4.47496,3.1760147058823547,34.719288143249436,516.74,3.1760147058823547,34.719288143249436,516.74,3.1760147058823547,34.719288143249436,516.74,0.9023976499999989,0.15603684521658082,0.5992,0.9023976499999989,0.15603684521658082,0.5992,0.9023976499999989,0.15603684521658082,0.5992
1,Waist,110,3,Fall,0.7808078428571416,0.43573910474924354,7.817028,0.7808078428571416,0.43573910474924354,7.817028,0.7808078428571416,0.43573910474924354,7.817028,-3.3489852941176435,30.93437362497329,760.4800000000001,-3.3489852941176435,30.93437362497329,760.4800000000001,-3.3489852941176435,30.93437362497329,760.4800000000001,0.9505075124999984,0.1700592419509167,0.6119399999999999,0.9505075124999984,0.1700592419509167,0.6119399999999999,0.9505075124999984,0.1700592419509167,0.6119399999999999
1,Waist,116,2,Fall,0.7966531823529428,0.4161758443023222,6.74294,0.7966531823529428,0.4161758443023222,6.74294,0.7966531823529428,0.4161758443023222,6.74294,-0.8723529411764696,19.99520998978574,420.35,-0.8723529411764696,19.99520998978574,420.35,-0.8723529411764696,19.99520998978574,420.35,0.9222764249999984,0.15394651288430547,0.7687399999999999,0.9222764249999984,0.15394651288430547,0.7687399999999999,0.9222764249999984,0.15394651288430547,0.7687399999999999
1,Waist,118,1,Fall,0.7216526571428569,0.521695965568828,2.924096,0.7216526571428569,0.521695965568828,2.924096,0.7216526571428569,0.521695965568828,2.924096,1.7964705882352974,35.85173641561431,726.6000000000001,1.7964705882352974,35.85173641561431,726.6000000000001,1.7964705882352974,35.85173641561431,726.6000000000001,0.4103064000000007,0.12517468746327462,0.4403,0.4103064000000007,0.12517468746327462,0.4403,0.4103064000000007,0.12517468746327462,0.4403
1,Waist,118,2,Fall,0.7030529882352926,0.4870523360193806,2.9785079999999997,0.7030529882352926,0.4870523360193806,2.9785079999999997,0.7030529882352926,0.4870523360193806,2.9785079999999997,-0.38950000000000157,21.616045235963096,293.72,-0.38950000000000157,21.616045235963096,293.72,-0.38950000000000157,21.616045235963096,293.72,0.8148363999999986,0.0982146970200193,0.38976,0.8148363999999986,0.0982146970200193,0.38976,0.8148363999999986,0.0982146970200193,0.38976
1,Waist,120,2,Fall,0.8222431949579847,0.32013605034283193,4.114572,0.8222431949579847,0.32013605034283193,4.114572,0.8222431949579847,0.32013605034283193,4.114572,0.02957352941176453,23.34973006847618,436.38,0.02957352941176453,23.34973006847618,436.38,0.02957352941176453,23.34973006847618,436.38,0.5537192499999996,0.1361540821945817,0.66794,0.5537192499999996,0.1361540821945817,0.66794,0.5537192499999996,0.1361540821945817,0.66794
1,Waist,120,3,Fall,0.7013033134453781,0.45682000791407307,6.556036000000001,0.7013033134453781,0.45682000791407307,6.556036000000001,0.7013033134453781,0.45682000791407307,6.556036000000001,1.6144264705882445,33.11837492268131,678.6500000000001,1.6144264705882445,33.11837492268131,678.6500000000001,1.6144264705882445,33.11837492268131,678.6500000000001,0.7579483625000001,0.19310279722793847,0.8131200000000001,0.7579483625000001,0.19310279722793847,0.8131200000000001,0.7579483625000001,0.19310279722793847,0.8131200000000001
1,Waist,121,2,Fall,0.49189913025209997,0.7937160989530547,9.75878,0.49189913025209997,0.7937160989530547,9.75878,0.49189913025209997,0.7937160989530547,9.75878,2.237588235294125,61.31957308863353,1103.13,2.237588235294125,61.31957308863353,1103.13,2.237588235294125,61.31957308863353,1103.13,0.5109633374999994,0.24153560733381987,0.69538,0.5109633374999994,0.24153560733381987,0.69538,0.5109633374999994,0.24153560733381987,0.69538
1,Waist,123,2,Fall,0.4413800067226913,0.7343078229671658,5.424852,0.4413800067226913,0.7343078229671658,5.424852,0.4413800067226913,0.7343078229671658,5.424852,3.5343529411764676,59.74176171379612,1427.7900000000002,3.5343529411764676,59.74176171379612,1427.7900000000002,3.5343529411764676,59.74176171379612,1427.7900000000002,0.4944562874999996,0.20502416861565403,0.7021,0.4944562874999996,0.20502416861565403,0.7021,0.4944562874999996,0.20502416861565403,0.7021
1,Waist,124,2,Fall,0.8300858470588217,0.5953270508389196,5.15694,0.8300858470588217,0.5953270508389196,5.15694,0.8300858470588217,0.5953270508389196,5.15694,-1.672455882352941,42.17554655944462,1036.7,-1.672455882352941,42.17554655944462,1036.7,-1.672455882352941,42.17554655944462,1036.7,0.964461399999999,0.2573062179518071,0.8535799999999998,0.964461399999999,0.2573062179518071,0.8535799999999998,0.964461399999999,0.2573062179518071,0.8535799999999998
1,Waist,126,2,Fall,0.834856662184875,0.561702748571306,5.2765,0.834856662184875,0.561702748571306,5.2765,0.834856662184875,0.561702748571306,5.2765,3.3027352941176487,46.669457095972255,1055.74,3.3027352941176487,46.669457095972255,1055.74,3.3027352941176487,46.669457095972255,1055.74,0.8339723875000002,0.24168327540462164,0.83734,0.8339723875000002,0.24168327540462164,0.83734,0.8339723875000002,0.24168327540462164,0.83734
1,Waist,127,1,Fall,-0.04368789243697519,0.14624560540805184,6.729763999999999,-0.04368789243697519,0.14624560540805184,6.729763999999999,-0.04368789243697519,0.14624560540805184,6.729763999999999,0.7416176470588225,27.271998263653376,1575.9100000000003,0.7416176470588225,27.271998263653376,1575.9100000000003,0.7416176470588225,27.271998263653376,1575.9100000000003,0.03943590000000002,0.27964178975575366,1.04482,0.03943590000000002,0.27964178975575366,1.04482,0.03943590000000002,0.27964178975575366,1.04482
1,Waist,127,2,Fall,0.060448539495798655,0.14001894570719245,3.772484,0.060448539495798655,0.14001894570719245,3.772484,0.060448539495798655,0.14001894570719245,3.772484,3.2169558823529436,40.07565335885689,1426.0400000000002,3.2169558823529436,40.07565335885689,1426.0400000000002,3.2169558823529436,40.07565335885689,1426.0400000000002,0.20103264999999967,0.1446815454419538,0.9408,0.20103264999999967,0.1446815454419538,0.9408,0.20103264999999967,0.1446815454419538,0.9408
1,Waist,127,4,Fall,0.004079874789916001,0.11429779757691237,2.528816,0.004079874789916001,0.11429779757691237,2.528816,0.004079874789916001,0.11429779757691237,2.528816,2.7096176470588285,28.704805564817608,943.2500000000001,2.7096176470588285,28.704805564817608,943.2500000000001,2.7096176470588285,28.704805564817608,943.2500000000001,0.1452939250000001,0.1829127306531486,1.04552,0.1452939250000001,0.1829127306531486,1.04552,0.1452939250000001,0.1829127306531486,1.04552
1,Waist,128,1,Fall,0.2601824798319324,0.4772838002435598,4.719448,0.2601824798319324,0.4772838002435598,4.719448,0.2601824798319324,0.4772838002435598,4.719448,-2.5021029411764735,37.369142235207455,1509.13,-2.5021029411764735,37.369142235207455,1509.13,-2.5021029411764735,37.369142235207455,1509.13,0.0553245,0.34089793283933806,1.05784,0.0553245,0.34089793283933806,1.05784,0.0553245,0.34089793283933806,1.05784
1,Waist,128,3,Fall,0.30087727142857135,0.5079228766892214,4.153856,0.30087727142857135,0.5079228766892214,4.153856,0.30087727142857135,0.5079228766892214,4.153856,0.7287499999999987,34.59209800931978,878.6400000000001,0.7287499999999987,34.59209800931978,878.6400000000001,0.7287499999999987,34.59209800931978,878.6400000000001,-0.10668376249999997,0.21822507233007066,1.06988,-0.10668376249999997,0.21822507233007066,1.06988,-0.10668376249999997,0.21822507233007066,1.06988
1,Waist,128,4,Fall,0.36118633109243675,0.5666409111021723,11.443356,0.36118633109243675,0.5666409111021723,11.443356,0.36118633109243675,0.5666409111021723,11.443356,5.0278088235294,64.41123130860065,1658.3000000000002,5.0278088235294,64.41123130860065,1658.3000000000002,5.0278088235294,64.41123130860065,1658.3000000000002,0.1546806624999999,0.17398451676760746,0.9666999999999999,0.1546806624999999,0.17398451676760746,0.9666999999999999,0.1546806624999999,0.17398451676760746,0.9666999999999999
1,Waist,129,1,Fall,0.3360191151260501,0.5135673819253249,2.5402839999999998,0.3360191151260501,0.5135673819253249,2.5402839999999998,0.3360191151260501,0.5135673819253249,2.5402839999999998,3.2241323529411643,15.341718015450489,301.42,3.2241323529411643,15.341718015450489,301.42,3.2241323529411643,15.341718015450489,301.42,0.5606114499999991,0.17640974088559286,0.6204799999999999,0.5606114499999991,0.17640974088559286,0.6204799999999999,0.5606114499999991,0.17640974088559286,0.6204799999999999
1,Waist,131,1,Fall,0.32879558739495734,0.579369957897842,7.30292,0.32879558739495734,0.579369957897842,7.30292,0.32879558739495734,0.579369957897842,7.30292,-2.681808823529429,21.881640415945064,556.4300000000001,-2.681808823529429,21.881640415945064,556.4300000000001,-2.681808823529429,21.881640415945064,556.4300000000001,0.5509855750000004,0.12689421716882407,0.37729999999999997,0.5509855750000004,0.12689421716882407,0.37729999999999997,0.5509855750000004,0.12689421716882407,0.37729999999999997
1,Waist,131,2,Fall,0.4733907050420203,0.4219968721767585,3.368664,0.4733907050420203,0.4219968721767585,3.368664,0.4733907050420203,0.4219968721767585,3.368664,3.2084117647058843,19.313537084866088,329.98,3.2084117647058843,19.313537084866088,329.98,3.2084117647058843,19.313537084866088,329.98,0.9166215624999973,0.28707667073903825,0.63784,0.9166215624999973,0.28707667073903825,0.63784,0.9166215624999973,0.28707667073903825,0.63784
2,Waist,13,1,No Fall,0.8438163831932772,0.14187077998380127,1.207068,0.8438163831932772,0.14187077998380127,1.207068,0.8438163831932772,0.14187077998380127,1.207068,-5.335808823529369,19.187577065783888,146.65000000000003,-5.335808823529369,19.187577065783888,146.65000000000003,-5.335808823529369,19.187577065783888,146.65000000000003,0.8106678999999992,0.14009933733708915,0.5875799999999999,0.8106678999999992,0.14009933733708915,0.5875799999999999,0.8106678999999992,0.14009933733708915,0.5875799999999999
2,Waist,13,2,No Fall,0.8376365705882334,0.07188538706633253,0.606096,0.8376365705882334,0.07188538706633253,0.606096,0.8376365705882334,0.07188538706633253,0.606096,-2.9352352941176223,14.008354261011888,95.34000000000002,-2.9352352941176223,14.008354261011888,95.34000000000002,-2.9352352941176223,14.008354261011888,95.34000000000002,0.7905319624999986,0.11101431098478133,0.5163199999999999,0.7905319624999986,0.11101431098478133,0.5163199999999999,0.7905319624999986,0.11101431098478133,0.5163199999999999
2,Waist,13,3,No Fall,0.7555348764705903,0.09521212309769944,0.795928,0.7555348764705903,0.09521212309769944,0.795928,0.7555348764705903,0.09521212309769944,0.795928,0.5978676470588299,27.91661448474923,197.33000000000004,0.5978676470588299,27.91661448474923,197.33000000000004,0.5978676470588299,27.91661448474923,197.33000000000004,0.7987782250000011,0.12815441128598298,0.5493599999999998,0.7987782250000011,0.12815441128598298,0.5493599999999998,0.7987782250000011,0.12815441128598298,0.5493599999999998
2,Waist,13,4,No Fall,0.7945552436974802,0.09876164475373049,0.7798240000000001,0.7945552436974802,0.09876164475373049,0.7798240000000001,0.7945552436974802,0.09876164475373049,0.7798240000000001,1.0217205882352962,15.608213883066027,166.81,1.0217205882352962,15.608213883066027,166.81,1.0217205882352962,15.608213883066027,166.81,0.953064262500003,0.14999204786452916,0.5942999999999999,0.953064262500003,0.14999204786452916,0.5942999999999999,0.953064262500003,0.14999204786452916,0.5942999999999999
2,Waist,13,5,No Fall,0.7398653605042026,0.10739534187855272,0.726632,0.7398653605042026,0.10739534187855272,0.726632,0.7398653605042026,0.10739534187855272,0.726632,-8.446058823529535,25.822014587830562,156.8,-8.446058823529535,25.822014587830562,156.8,-8.446058823529535,25.822014587830562,156.8,0.8259263249999996,0.13723335335219924,0.64372,0.8259263249999996,0.13723335335219924,0.64372,0.8259263249999996,0.13723335335219924,0.64372
2,Waist,13,6,No Fall,0.6641514941176488,0.10231921167308987,0.564128,0.6641514941176488,0.10231921167308987,0.564128,0.6641514941176488,0.10231921167308987,0.564128,-3.652499999999979,17.307622349567687,103.32000000000001,-3.652499999999979,17.307622349567687,103.32000000000001,-3.652499999999979,17.307622349567687,103.32000000000001,0.7065474499999987,0.1649872797916726,0.70532,0.7065474499999987,0.1649872797916726,0.70532,0.7065474499999987,0.1649872797916726,0.70532
2,Waist,13,7,No Fall,0.9313784999999999,0.06420663576744084,0.58194,0.9313784999999999,0.06420663576744084,0.58194,0.9313784999999999,0.06420663576744084,0.58194,0.7293823529411748,15.369775740085045,122.22,0.7293823529411748,15.369775740085045,122.22,0.7293823529411748,15.369775740085045,122.22,0.6766256874999986,0.24527913730360437,0.8472799999999999,0.6766256874999986,0.24527913730360437,0.8472799999999999,0.6766256874999986,0.24527913730360437,0.8472799999999999
2,Waist,13,8,No Fall,0.9439133336134433,0.06657938902315115,1.750456,0.9439133336134433,0.06657938902315115,1.750456,0.9439133336134433,0.06657938902315115,1.750456,0.9060441176470595,11.255446938108662,172.27,0.9060441176470595,11.255446938108662,172.27,0.9060441176470595,11.255446938108662,172.27,0.9459041375000017,0.37590726479007724,0.8884399999999999,0.9459041375000017,0.37590726479007724,0.8884399999999999,0.9459041375000017,0.37590726479007724,0.8884399999999999
2,Waist,13,9,No Fall,0.8786629151260509,0.105968158424453,1.1028799999999999,0.8786629151260509,0.105968158424453,1.1028799999999999,0.8786629151260509,0.105968158424453,1.1028799999999999,-1.882161764705875,16.565758545231354,190.61,-1.882161764705875,16.565758545231354,190.61,-1.882161764705875,16.565758545231354,190.61,0.9708872250000011,0.15689819785805834,0.58002,0.9708872250000011,0.15689819785805834,0.58002,0.9708872250000011,0.15689819785805834,0.58002
2,Waist,13,11,No Fall,0.9344238865546198,0.079214537535234,0.76494,0.9344238865546198,0.079214537535234,0.76494,0.9344238865546198,0.079214537535234,0.76494,-0.3315735294117656,13.978988025704519,122.43,-0.3315735294117656,13.978988025704519,122.43,-0.3315735294117656,13.978988025704519,122.43,0.8370151999999984,0.19007811805889951,0.8513399999999999,0.8370151999999984,0.19007811805889951,0.8513399999999999,0.8370151999999984,0.19007811805889951,0.8513399999999999
2,Waist,13,12,No Fall,0.9505868361344548,0.03796509254918482,0.47506799999999993,0.9505868361344548,0.03796509254918482,0.47506799999999993,0.9505868361344548,0.03796509254918482,0.47506799999999993,1.0648382352941177,8.961937532011852,97.02000000000001,1.0648382352941177,8.961937532011852,97.02000000000001,1.0648382352941177,8.961937532011852,97.02000000000001,0.9604974749999999,0.22391913021372603,0.59668,0.9604974749999999,0.22391913021372603,0.59668,0.9604974749999999,0.22391913021372603,0.59668
2,Waist,14,1,No Fall,0.8280905319327699,0.12224150951655213,0.8947480000000001,0.8280905319327699,0.12224150951655213,0.8947480000000001,0.8280905319327699,0.12224150951655213,0.8947480000000001,-0.9586764705882451,19.69111073760541,170.31,-0.9586764705882451,19.69111073760541,170.31,-0.9586764705882451,19.69111073760541,170.31,0.9165915500000024,0.1797237382245272,0.6022799999999999,0.9165915500000024,0.1797237382245272,0.6022799999999999,0.9165915500000024,0.1797237382245272,0.6022799999999999
2,Waist,14,2,No Fall,0.7400698899159658,0.053284803475050505,0.52826,0.7400698899159658,0.053284803475050505,0.52826,0.7400698899159658,0.053284803475050505,0.52826,3.416897058823525,12.696746374382338,127.4,3.416897058823525,12.696746374382338,127.4,3.416897058823525,12.696746374382338,127.4,0.9523176249999992,0.17708695343116487,0.48930000000000007,0.9523176249999992,0.17708695343116487,0.48930000000000007,0.9523176249999992,0.17708695343116487,0.48930000000000007
2,Waist,14,3,No Fall,0.753131271428573,0.11622586693520832,0.91378,0.753131271428573,0.11622586693520832,0.91378,0.753131271428573,0.11622586693520832,0.91378,-5.570044117647042,24.712889087562374,212.03000000000003,-5.570044117647042,24.712889087562374,212.03000000000003,-5.570044117647042,24.712889087562374,212.03000000000003,0.8129812249999975,0.14658734215664634,0.6064799999999999,0.8129812249999975,0.14658734215664634,0.6064799999999999,0.8129812249999975,0.14658734215664634,0.6064799999999999
2,Waist,14,4,No Fall,0.7982546630252094,0.08578754043838624,0.47506799999999993,0.7982546630252094,0.08578754043838624,0.47506799999999993,0.7982546630252094,0.08578754043838624,0.47506799999999993,0.2078382352941176,10.33666379538758,103.60000000000001,0.2078382352941176,10.33666379538758,103.60000000000001,0.2078382352941176,10.33666379538758,103.60000000000001,0.9044406874999996,0.1208284670899801,0.4032,0.9044406874999996,0.1208284670899801,0.4032,0.9044406874999996,0.1208284670899801,0.4032
2,Waist,14,5,No Fall,0.6803040378151259,0.13899528848869405,0.7363919999999999,0.6803040378151259,0.13899528848869405,0.7363919999999999,0.6803040378151259,0.13899528848869405,0.7363919999999999,-5.0197941176470575,23.454493191084904,167.23000000000002,-5.0197941176470575,23.454493191084904,167.23000000000002,-5.0197941176470575,23.454493191084904,167.23000000000002,0.934950537500002,0.15913927306091055,0.60536,0.934950537500002,0.15913927306091055,0.60536,0.934950537500002,0.15913927306091055,0.60536
2,Waist,14,6,No Fall,0.5423668907563023,0.3873467634135107,2.152812,0.5423668907563023,0.3873467634135107,2.152812,0.5423668907563023,0.3873467634135107,2.152812,-4.813941176470597,49.78724536655996,712.32,-4.813941176470597,49.78724536655996,712.32,-4.813941176470597,49.78724536655996,712.32,0.9185834874999996,0.26645021951719766,1.1325999999999998,0.9185834874999996,0.26645021951719766,1.1325999999999998,0.9185834874999996,0.26645021951719766,1.1325999999999998
2,Waist,14,7,No Fall,0.9399060949579826,0.07994642022126329,0.7715280000000001,0.9399060949579826,0.07994642022126329,0.7715280000000001,0.9399060949579826,0.07994642022126329,0.7715280000000001,1.7137205882352975,14.72522694976486,95.9,1.7137205882352975,14.72522694976486,95.9,1.7137205882352975,14.72522694976486,95.9,0.746788175000001,0.2921125000185482,1.0208799999999998,0.746788175000001,0.2921125000185482,1.0208799999999998,0.746788175000001,0.2921125000185482,1.0208799999999998
2,Waist,14,8,No Fall,0.955574585714289,0.04121709714406375,0.8276479999999999,0.955574585714289,0.04121709714406375,0.8276479999999999,0.955574585714289,0.04121709714406375,0.8276479999999999,2.270264705882351,7.6504903708020615,78.26,2.270264705882351,7.6504903708020615,78.26,2.270264705882351,7.6504903708020615,78.26,0.8950414375000002,0.3060419850642593,0.7575399999999999,0.8950414375000002,0.3060419850642593,0.7575399999999999,0.8950414375000002,0.3060419850642593,0.7575399999999999
2,Waist,14,9,No Fall,0.8884255294117643,0.12023096472679727,0.9418399999999999,0.8884255294117643,0.12023096472679727,0.9418399999999999,0.8884255294117643,0.12023096472679727,0.9418399999999999,2.430073529411768,17.735934738886584,172.55,2.430073529411768,17.735934738886584,172.55,2.430073529411768,17.735934738886584,172.55,1.0091600750000007,0.1722391292724367,0.5425,1.0091600750000007,0.1722391292724367,0.5425,1.0091600750000007,0.1722391292724367,0.5425
2,Waist,14,10,No Fall,0.8951070285714271,0.05318613077491627,0.5002,0.8951070285714271,0.05318613077491627,0.5002,0.8951070285714271,0.05318613077491627,0.5002,3.7366470588235376,16.29822261116389,170.8,3.7366470588235376,16.29822261116389,170.8,3.7366470588235376,16.29822261116389,170.8,1.080023437499999,0.20348033052239273,0.4820199999999999,1.080023437499999,0.20348033052239273,0.4820199999999999,1.080023437499999,0.20348033052239273,0.4820199999999999
2,Waist,14,11,No Fall,0.9445050848739492,0.0914285595227109,0.991372,0.9445050848739492,0.0914285595227109,0.991372,0.9445050848739492,0.0914285595227109,0.991372,2.5475735294117636,13.9360709483131,108.15,2.5475735294117636,13.9360709483131,108.15,2.5475735294117636,13.9360709483131,108.15,0.8742335875000009,0.1664610289286199,0.54922,0.8742335875000009,0.1664610289286199,0.54922,0.8742335875000009,0.1664610289286199,0.54922
2,Waist,15,1,No Fall,0.7608026621848745,0.07446123908122,1.089704,0.7608026621848745,0.07446123908122,1.089704,0.7608026621848745,0.07446123908122,1.089704,1.8186617647058754,16.306758598759,230.23000000000002,1.8186617647058754,16.306758598759,230.23000000000002,1.8186617647058754,16.306758598759,230.23000000000002,0.8112229999999994,0.0899066141952167,0.47124,0.8112229999999994,0.0899066141952167,0.47124,0.8112229999999994,0.0899066141952167,0.47124
2,Waist,15,2,No Fall,0.6383217873949603,0.18132424278704276,1.112152,0.6383217873949603,0.18132424278704276,1.112152,0.6383217873949603,0.18132424278704276,1.112152,2.252411764705898,6.1574225783139145,71.26,2.252411764705898,6.1574225783139145,71.26,2.252411764705898,6.1574225783139145,71.26,0.805545300000001,0.11046992582703279,0.5219199999999999,0.805545300000001,0.11046992582703279,0.5219199999999999,0.805545300000001,0.11046992582703279,0.5219199999999999
2,Waist,15,3,No Fall,0.8603006848739445,0.06148602571847724,0.7568880000000001,0.8603006848739445,0.06148602571847724,0.7568880000000001,0.8603006848739445,0.06148602571847724,0.7568880000000001,1.8599705882352975,17.702180454813355,216.09000000000003,1.8599705882352975,17.702180454813355,216.09000000000003,1.8599705882352975,17.702180454813355,216.09000000000003,0.9063481000000009,0.10766564772573758,0.5117,0.9063481000000009,0.10766564772573758,0.5117,0.9063481000000009,0.10766564772573758,0.5117
2,Waist,16,1,No Fall,0.4863475663865556,0.30334518262681254,0.930372,0.4863475663865556,0.30334518262681254,0.930372,0.4863475663865556,0.30334518262681254,0.930372,8.649529411764885,29.58727055707979,209.16000000000003,8.649529411764885,29.58727055707979,209.16000000000003,8.649529411764885,29.58727055707979,209.16000000000003,0.7449924124999998,0.20122572188004717,0.7144199999999999,0.7449924124999998,0.20122572188004717,0.7144199999999999,0.7449924124999998,0.20122572188004717,0.7144199999999999
2,Waist,16,2,No Fall,0.5212732957983197,0.27095331464839556,0.881084,0.5212732957983197,0.27095331464839556,0.881084,0.5212732957983197,0.27095331464839556,0.881084,4.466823529411823,26.070593364238405,219.45000000000002,4.466823529411823,26.070593364238405,219.45000000000002,4.466823529411823,26.070593364238405,219.45000000000002,0.6850212249999995,0.15910690871156152,0.7100799999999999,0.6850212249999995,0.15910690871156152,0.7100799999999999,0.6850212249999995,0.15910690871156152,0.7100799999999999
2,Waist,16,3,No Fall,0.578948385714289,0.35503044901063924,1.276852,0.578948385714289,0.35503044901063924,1.276852,0.578948385714289,0.35503044901063924,1.276852,-1.3916029411764639,14.94789972020407,137.55,-1.3916029411764639,14.94789972020407,137.55,-1.3916029411764639,14.94789972020407,137.55,0.7350793624999993,0.2355530828191592,0.8537199999999998,0.7350793624999993,0.2355530828191592,0.8537199999999998,0.7350793624999993,0.2355530828191592,0.8537199999999998
2,Waist,16,4,No Fall,0.6066044016806716,0.37989286979429776,1.319308,0.6066044016806716,0.37989286979429776,1.319308,0.6066044016806716,0.37989286979429776,1.319308,-2.0239558823529333,13.225512866747877,107.10000000000002,-2.0239558823529333,13.225512866747877,107.10000000000002,-2.0239558823529333,13.225512866747877,107.10000000000002,0.87659215,0.35147411677832774,0.9111199999999999,0.87659215,0.35147411677832774,0.9111199999999999,0.87659215,0.35147411677832774,0.9111199999999999
2,Waist,16,5,No Fall,0.41365530168067194,0.451732442747817,1.618208,0.41365530168067194,0.451732442747817,1.618208,0.41365530168067194,0.451732442747817,1.618208,-1.097823529411764,17.834068531580424,132.72000000000003,-1.097823529411764,17.834068531580424,132.72000000000003,-1.097823529411764,17.834068531580424,132.72000000000003,0.6309031749999992,0.34138868612815015,1.03124,0.6309031749999992,0.34138868612815015,1.03124,0.6309031749999992,0.34138868612815015,1.03124
2,Waist,17,1,No Fall,-0.2607489596638661,0.40440961833523803,1.602836,-0.2607489596638661,0.40440961833523803,1.602836,-0.2607489596638661,0.40440961833523803,1.602836,-1.2072205882352938,17.835941913438784,232.82000000000002,-1.2072205882352938,17.835941913438784,232.82000000000002,-1.2072205882352938,17.835941913438784,232.82000000000002,0.5243619500000001,0.06042691435680115,0.26655999999999996,0.5243619500000001,0.06042691435680115,0.26655999999999996,0.5243619500000001,0.06042691435680115,0.26655999999999996
2,Waist,17,2,No Fall,-0.23700432521008366,0.41792854382559363,1.474736,-0.23700432521008366,0.41792854382559363,1.474736,-0.23700432521008366,0.41792854382559363,1.474736,-1.3068088235294155,15.269533649551027,153.79000000000002,-1.3068088235294155,15.269533649551027,153.79000000000002,-1.3068088235294155,15.269533649551027,153.79000000000002,0.4870853750000005,0.05633865782336062,0.31989999999999996,0.4870853750000005,0.05633865782336062,0.31989999999999996,0.4870853750000005,0.05633865782336062,0.31989999999999996
2,Waist,17,3,No Fall,0.043227829411764375,0.1672087715132909,0.79178,0.043227829411764375,0.1672087715132909,0.79178,0.043227829411764375,0.1672087715132909,0.79178,1.2205441176470586,10.932778896522077,148.82000000000002,1.2205441176470586,10.932778896522077,148.82000000000002,1.2205441176470586,10.932778896522077,148.82000000000002,0.8824328625000005,0.3336361781348159,0.8261399999999999,0.8824328625000005,0.3336361781348159,0.8261399999999999,0.8824328625000005,0.3336361781348159,0.8261399999999999
2,Waist,17,4,No Fall,0.12147201680672284,0.08252497247165336,0.862296,0.12147201680672284,0.08252497247165336,0.862296,0.12147201680672284,0.08252497247165336,0.862296,1.5969558823529393,11.065646883577815,112.91000000000003,1.5969558823529393,11.065646883577815,112.91000000000003,1.5969558823529393,11.065646883577815,112.91000000000003,0.752046225000001,0.2598709170746361,0.75614,0.752046225000001,0.2598709170746361,0.75614,0.752046225000001,0.2598709170746361,0.75614
2,Waist,18,1,No Fall,0.17680983277310922,0.6590715802558422,1.7538719999999999,0.17680983277310922,0.6590715802558422,1.7538719999999999,0.17680983277310922,0.6590715802558422,1.7538719999999999,3.81560294117648,28.872543120823746,168.00000000000003,3.81560294117648,28.872543120823746,168.00000000000003,3.81560294117648,28.872543120823746,168.00000000000003,0.7216295625,0.2781206140441254,0.8980999999999999,0.7216295625,0.2781206140441254,0.8980999999999999,0.7216295625,0.2781206140441254,0.8980999999999999
2,Waist,18,2,No Fall,0.18490437899159612,0.6348380350398897,1.851716,0.18490437899159612,0.6348380350398897,1.851716,0.18490437899159612,0.6348380350398897,1.851716,10.123705882352965,18.586734708637742,118.93,10.123705882352965,18.586734708637742,118.93,10.123705882352965,18.586734708637742,118.93,0.8275153249999989,0.3410051756011352,0.85134,0.8275153249999989,0.3410051756011352,0.85134,0.8275153249999989,0.3410051756011352,0.85134
2,Waist,18,3,No Fall,0.5318264495798308,0.47880619656755957,1.844884,0.5318264495798308,0.47880619656755957,1.844884,0.5318264495798308,0.47880619656755957,1.844884,1.8047205882352895,31.94987243164646,482.86,1.8047205882352895,31.94987243164646,482.86,1.8047205882352895,31.94987243164646,482.86,1.159805762499997,0.16737390693442977,0.6342,1.159805762499997,0.16737390693442977,0.6342,1.159805762499997,0.16737390693442977,0.6342
2,Waist,18,4,No Fall,0.4681703865546225,0.41780425711217645,1.5591599999999999,0.4681703865546225,0.41780425711217645,1.5591599999999999,0.4681703865546225,0.41780425711217645,1.5591599999999999,3.5403382352941173,18.336327563087146,241.01000000000005,3.5403382352941173,18.336327563087146,241.01000000000005,3.5403382352941173,18.336327563087146,241.01000000000005,1.0895513124999976,0.1702551734304343,0.73836,1.0895513124999976,0.1702551734304343,0.73836,1.0895513124999976,0.1702551734304343,0.73836
2,Waist,18,6,No Fall,0.43827787478991564,0.45443071527614914,1.694336,0.43827787478991564,0.45443071527614914,1.694336,0.43827787478991564,0.45443071527614914,1.694336,4.952941176470599,15.734631899792383,154.70000000000002,4.952941176470599,15.734631899792383,154.70000000000002,4.952941176470599,15.734631899792383,154.70000000000002,0.9687167875000005,0.265678427993068,0.8863399999999999,0.9687167875000005,0.265678427993068,0.8863399999999999,0.9687167875000005,0.265678427993068,0.8863399999999999
2,Waist,19,1,No Fall,0.9682130168067262,0.058362014836372954,0.535824,0.9682130168067262,0.058362014836372954,0.535824,0.9682130168067262,0.058362014836372954,0.535824,1.623808823529415,8.312850148354384,67.97,1.623808823529415,8.312850148354384,67.97,1.623808823529415,8.312850148354384,67.97,0.8689375624999994,0.034357759816318625,0.14364,0.8689375624999994,0.034357759816318625,0.14364,0.8689375624999994,0.034357759816318625,0.14364
2,Waist,19,2,No Fall,0.9696486697479004,0.1438945437971553,1.250988,0.9696486697479004,0.1438945437971553,1.250988,0.9696486697479004,0.1438945437971553,1.250988,1.6234558823529417,14.724475915126787,126.42000000000002,1.6234558823529417,14.724475915126787,126.42000000000002,1.6234558823529417,14.724475915126787,126.42000000000002,0.9479249500000008,0.03525048857942512,0.1587599999999999,0.9479249500000008,0.03525048857942512,0.1587599999999999,0.9479249500000008,0.03525048857942512,0.1587599999999999
2,Waist,19,3,No Fall,0.9574292420168099,0.17558889732819544,1.840736,0.9574292420168099,0.17558889732819544,1.840736,0.9574292420168099,0.17558889732819544,1.840736,1.758867647058825,21.211890227756218,214.34000000000003,1.758867647058825,21.211890227756218,214.34000000000003,1.758867647058825,21.211890227756218,214.34000000000003,0.9186894499999996,0.0694307415927651,0.2932999999999999,0.9186894499999996,0.0694307415927651,0.2932999999999999,0.9186894499999996,0.0694307415927651,0.2932999999999999
2,Waist,19,4,No Fall,0.9500795621848721,0.20906774115374077,1.5459839999999998,0.9500795621848721,0.20906774115374077,1.5459839999999998,0.9500795621848721,0.20906774115374077,1.5459839999999998,1.487382352941177,23.236639963882904,204.75,1.487382352941177,23.236639963882904,204.75,1.487382352941177,23.236639963882904,204.75,0.8725999624999983,0.024246767141654326,0.14181999999999995,0.8725999624999983,0.024246767141654326,0.14181999999999995,0.8725999624999983,0.024246767141654326,0.14181999999999995
2,Waist,19,5,No Fall,0.9455952420168072,0.17594228190888397,1.554524,0.9455952420168072,0.17594228190888397,1.554524,0.9455952420168072,0.17594228190888397,1.554524,1.2811617647058784,20.508384182697846,186.76000000000002,1.2811617647058784,20.508384182697846,186.76000000000002,1.2811617647058784,20.508384182697846,186.76000000000002,0.8755508999999995,0.027910655225414287,0.13090000000000002,0.8755508999999995,0.027910655225414287,0.13090000000000002,0.8755508999999995,0.027910655225414287,0.13090000000000002
2,Waist,20,1,No Fall,0.9675946100840332,0.11815339056613859,1.120448,0.9675946100840332,0.11815339056613859,1.120448,0.9675946100840332,0.11815339056613859,1.120448,1.695338235294121,14.011299963847597,90.58000000000001,1.695338235294121,14.011299963847597,90.58000000000001,1.695338235294121,14.011299963847597,90.58000000000001,0.8353649500000002,0.018455276285163726,0.11227999999999994,0.8353649500000002,0.018455276285163726,0.11227999999999994,0.8353649500000002,0.018455276285163726,0.11227999999999994
2,Waist,20,3,No Fall,0.9576745747899177,0.23810160839118555,1.843176,0.9576745747899177,0.23810160839118555,1.843176,0.9576745747899177,0.23810160839118555,1.843176,1.4860000000000058,27.751929820279862,219.31000000000003,1.4860000000000058,27.751929820279862,219.31000000000003,1.4860000000000058,27.751929820279862,219.31000000000003,0.9595411875000001,0.08402314526621578,0.31975999999999993,0.9595411875000001,0.08402314526621578,0.31975999999999993,0.9595411875000001,0.08402314526621578,0.31975999999999993
2,Waist,20,4,No Fall,0.9555571571428576,0.30318580202110296,1.6836,0.9555571571428576,0.30318580202110296,1.6836,0.9555571571428576,0.30318580202110296,1.6836,1.902602941176472,33.729794682246286,218.19,1.902602941176472,33.729794682246286,218.19,1.902602941176472,33.729794682246286,218.19,0.8537270875000011,0.029527734377246952,0.13958000000000004,0.8537270875000011,0.029527734377246952,0.13958000000000004,0.8537270875000011,0.029527734377246952,0.13958000000000004
2,Waist,20,6,No Fall,0.9567747478991622,0.3767214881579801,2.545408,0.9567747478991622,0.3767214881579801,2.545408,0.9567747478991622,0.3767214881579801,2.545408,1.6269411764705912,40.47700983479007,363.65000000000003,1.6269411764705912,40.47700983479007,363.65000000000003,1.6269411764705912,40.47700983479007,363.65000000000003,0.9688463749999987,0.07960075200137157,0.40488,0.9688463749999987,0.07960075200137157,0.40488,0.9688463749999987,0.07960075200137157,0.40488
2,Waist,21,1,No Fall,0.9695296428571454,0.12166422453054102,1.182912,0.9695296428571454,0.12166422453054102,1.182912,0.9695296428571454,0.12166422453054102,1.182912,1.5429264705882304,13.502580817915158,128.59000000000003,1.5429264705882304,13.502580817915158,128.59000000000003,1.5429264705882304,13.502580817915158,128.59000000000003,0.8910440000000005,0.03902225336472817,0.20817999999999992,0.8910440000000005,0.03902225336472817,0.20817999999999992,0.8910440000000005,0.03902225336472817,0.20817999999999992
2,Waist,21,2,No Fall,0.9660300369747927,0.15179091180642634,1.393484,0.9660300369747927,0.15179091180642634,1.393484,0.9660300369747927,0.15179091180642634,1.393484,1.9287794117647101,15.220341796899708,139.86,1.9287794117647101,15.220341796899708,139.86,1.9287794117647101,15.220341796899708,139.86,1.0708871249999983,0.04878816297282862,0.26739999999999986,1.0708871249999983,0.04878816297282862,0.26739999999999986,1.0708871249999983,0.04878816297282862,0.26739999999999986
2,Waist,21,3,No Fall,0.9489529075630267,0.16786431334664703,1.8487879999999999,0.9489529075630267,0.16786431334664703,1.8487879999999999,0.9489529075630267,0.16786431334664703,1.8487879999999999,1.7215588235294168,19.676548464970562,239.26000000000002,1.7215588235294168,19.676548464970562,239.26000000000002,1.7215588235294168,19.676548464970562,239.26000000000002,0.8692726875000009,0.026289418151017426,0.14042,0.8692726875000009,0.026289418151017426,0.14042,0.8692726875000009,0.026289418151017426,0.14042
2,Waist,21,4,No Fall,0.9503715932773067,0.21942349920890344,1.6592,0.9503715932773067,0.21942349920890344,1.6592,0.9503715932773067,0.21942349920890344,1.6592,1.9042794117647037,25.08216891968416,225.75,1.9042794117647037,25.08216891968416,225.75,1.9042794117647037,25.08216891968416,225.75,0.8673142624999999,0.03004316310930163,0.13804000000000005,0.8673142624999999,0.03004316310930163,0.13804000000000005,0.8673142624999999,0.03004316310930163,0.13804000000000005
2,Waist,21,5,No Fall,0.9502852193277284,0.20720060548796096,1.5128,0.9502852193277284,0.20720060548796096,1.5128,0.9502852193277284,0.20720060548796096,1.5128,1.6317352941176428,24.705252130801924,206.57,1.6317352941176428,24.705252130801924,206.57,1.6317352941176428,24.705252130801924,206.57,0.8657120499999985,0.03120936349124177,0.15889999999999993,0.8657120499999985,0.03120936349124177,0.15889999999999993,0.8657120499999985,0.03120936349124177,0.15889999999999993
2,Waist,22,1,No Fall,0.9698486882352912,0.3788910292544502,2.413892,0.9698486882352912,0.3788910292544502,2.413892,0.9698486882352912,0.3788910292544502,2.413892,2.051529411764702,35.53136628405592,231.98000000000002,2.051529411764702,35.53136628405592,231.98000000000002,2.051529411764702,35.53136628405592,231.98000000000002,1.0621422874999995,0.04805697698217456,0.25970000000000004,1.0621422874999995,0.04805697698217456,0.25970000000000004,1.0621422874999995,0.04805697698217456,0.25970000000000004
2,Waist,22,2,No Fall,0.9554479210084036,0.4536179825929621,2.3555759999999997,0.9554479210084036,0.4536179825929621,2.3555759999999997,0.9554479210084036,0.4536179825929621,2.3555759999999997,2.0433529411764706,45.182368248273626,300.02000000000004,2.0433529411764706,45.182368248273626,300.02000000000004,2.0433529411764706,45.182368248273626,300.02000000000004,0.8609832875000006,0.03663813902495394,0.18284,0.8609832875000006,0.03663813902495394,0.18284,0.8609832875000006,0.03663813902495394,0.18284
2,Waist,22,3,No Fall,0.9545809008403358,0.5192323398679157,2.422676,0.9545809008403358,0.5192323398679157,2.422676,0.9545809008403358,0.5192323398679157,2.422676,2.5220735294117644,49.518014700479675,314.72,2.5220735294117644,49.518014700479675,314.72,2.5220735294117644,49.518014700479675,314.72,0.8553652624999997,0.05162920946615308,0.2629199999999998,0.8553652624999997,0.05162920946615308,0.2629199999999998,0.8553652624999997,0.05162920946615308,0.2629199999999998
2,Waist,23,1,No Fall,0.9594791495798315,0.2930825316567351,2.9211679999999998,0.9594791495798315,0.2930825316567351,2.9211679999999998,0.9594791495798315,0.2930825316567351,2.9211679999999998,1.8234705882352913,34.32568972065186,423.22,1.8234705882352913,34.32568972065186,423.22,1.8234705882352913,34.32568972065186,423.22,1.0832781749999982,0.057183915153341355,0.4006799999999999,1.0832781749999982,0.057183915153341355,0.4006799999999999,1.0832781749999982,0.057183915153341355,0.4006799999999999
2,Waist,23,2,No Fall,0.9397101260504215,0.31283417533854074,4.056744,0.9397101260504215,0.31283417533854074,4.056744,0.9397101260504215,0.31283417533854074,4.056744,1.653014705882347,42.879860407720834,868.5600000000002,1.653014705882347,42.879860407720834,868.5600000000002,1.653014705882347,42.879860407720834,868.5600000000002,1.0985743125000011,0.05487565340146292,0.32521999999999995,1.0985743125000011,0.05487565340146292,0.32521999999999995,1.0985743125000011,0.05487565340146292,0.32521999999999995
2,Waist,23,3,No Fall,0.9444206075630222,0.3626347020613129,5.252832,0.9444206075630222,0.3626347020613129,5.252832,0.9444206075630222,0.3626347020613129,5.252832,1.8426470588235324,45.7260156568192,717.3600000000001,1.8426470588235324,45.7260156568192,717.3600000000001,1.8426470588235324,45.7260156568192,717.3600000000001,0.9545898249999999,0.12360906028214223,0.43904,0.9545898249999999,0.12360906028214223,0.43904,0.9545898249999999,0.12360906028214223,0.43904
2,Waist,24,2,No Fall,0.9494504932773129,0.8042112659574971,4.347836,0.9494504932773129,0.8042112659574971,4.347836,0.9494504932773129,0.8042112659574971,4.347836,1.3702647058823523,78.57906698345585,549.08,1.3702647058823523,78.57906698345585,549.08,1.3702647058823523,78.57906698345585,549.08,1.1097549750000006,0.05237973084482666,0.3197599999999998,1.1097549750000006,0.05237973084482666,0.3197599999999998,1.1097549750000006,0.05237973084482666,0.3197599999999998
2,Waist,24,3,No Fall,0.9701700403361341,0.9185131288251446,4.199484,0.9701700403361341,0.9185131288251446,4.199484,0.9701700403361341,0.9185131288251446,4.199484,2.2482205882353004,80.25444310727859,553.2800000000001,2.2482205882353004,80.25444310727859,553.2800000000001,2.2482205882353004,80.25444310727859,553.2800000000001,1.070827712499999,0.048184691215774816,0.24751999999999985,1.070827712499999,0.048184691215774816,0.24751999999999985,1.070827712499999,0.048184691215774816,0.24751999999999985
2,Waist,25,1,No Fall,0.9637015798319338,0.9376412571050119,4.986383999999999,0.9637015798319338,0.9376412571050119,4.986383999999999,0.9637015798319338,0.9376412571050119,4.986383999999999,2.254132352941168,91.00084709134315,600.6000000000001,2.254132352941168,91.00084709134315,600.6000000000001,2.254132352941168,91.00084709134315,600.6000000000001,1.2892186124999996,0.09601880579209958,0.45388000000000006,1.2892186124999996,0.09601880579209958,0.45388000000000006,1.2892186124999996,0.09601880579209958,0.45388000000000006
2,Waist,25,2,No Fall,0.9553204361344524,0.9721015838104906,5.1898800000000005,0.9553204361344524,0.9721015838104906,5.1898800000000005,0.9553204361344524,0.9721015838104906,5.1898800000000005,2.7388088235294075,85.07696910210404,551.95,2.7388088235294075,85.07696910210404,551.95,2.7388088235294075,85.07696910210404,551.95,1.2911721375000005,0.07974247470671646,0.39662,1.2911721375000005,0.07974247470671646,0.39662,1.2911721375000005,0.07974247470671646,0.39662
2,Waist,25,3,No Fall,0.9640185235294095,1.0623940418548274,6.618011999999999,0.9640185235294095,1.0623940418548274,6.618011999999999,0.9640185235294095,1.0623940418548274,6.618011999999999,1.562088235294119,102.84618218631714,872.8300000000002,1.562088235294119,102.84618218631714,872.8300000000002,1.562088235294119,102.84618218631714,872.8300000000002,1.2799048499999999,0.05580760723788931,0.32508000000000004,1.2799048499999999,0.05580760723788931,0.32508000000000004,1.2799048499999999,0.05580760723788931,0.32508000000000004
2,Waist,26,1,No Fall,0.9584014487394985,0.15090615440495672,2.52784,0.9584014487394985,0.15090615440495672,2.52784,0.9584014487394985,0.15090615440495672,2.52784,2.153176470588246,7.7226278666385095,141.40000000000003,2.153176470588246,7.7226278666385095,141.40000000000003,2.153176470588246,7.7226278666385095,141.40000000000003,1.1573805250000004,0.014749990868421277,0.0992599999999999,1.1573805250000004,0.014749990868421277,0.0992599999999999,1.1573805250000004,0.014749990868421277,0.0992599999999999
2,Waist,26,3,No Fall,0.9324607117647012,0.1698661377973413,3.27936,0.9324607117647012,0.1698661377973413,3.27936,0.9324607117647012,0.1698661377973413,3.27936,1.5325735294117608,10.377716489300928,294.0,1.5325735294117608,10.377716489300928,294.0,1.5325735294117608,10.377716489300928,294.0,1.182896662500001,0.012611993799687114,0.12572000000000005,1.182896662500001,0.012611993799687114,0.12572000000000005,1.182896662500001,0.012611993799687114,0.12572000000000005
2,Waist,26,4,No Fall,0.9404757529411748,0.2027932970861004,3.0626879999999996,0.9404757529411748,0.2027932970861004,3.0626879999999996,0.9404757529411748,0.2027932970861004,3.0626879999999996,-5.089308823529403,21.690729353038964,388.22,-5.089308823529403,21.690729353038964,388.22,-5.089308823529403,21.690729353038964,388.22,0.9436643125000017,0.14613794181500606,0.6102599999999999,0.9436643125000017,0.14613794181500606,0.6102599999999999,0.9436643125000017,0.14613794181500606,0.6102599999999999
2,Waist,27,1,No Fall,0.9562669100840347,0.23515395593028487,4.687728,0.9562669100840347,0.23515395593028487,4.687728,0.9562669100840347,0.23515395593028487,4.687728,0.4928529411764683,16.27673804411722,381.2900000000001,0.4928529411764683,16.27673804411722,381.2900000000001,0.4928529411764683,16.27673804411722,381.2900000000001,1.15703595,0.027399406476592586,0.1818599999999999,1.15703595,0.027399406476592586,0.1818599999999999,1.15703595,0.027399406476592586,0.1818599999999999
2,Waist,27,2,No Fall,0.9564941478991585,0.26710468960485834,4.77386,0.9564941478991585,0.26710468960485834,4.77386,0.9564941478991585,0.26710468960485834,4.77386,-2.762308823529402,23.250518499398417,531.9300000000001,-2.762308823529402,23.250518499398417,531.9300000000001,-2.762308823529402,23.250518499398417,531.9300000000001,0.9494520000000002,0.16304568406870928,0.5380199999999998,0.9494520000000002,0.16304568406870928,0.5380199999999998,0.9494520000000002,0.16304568406870928,0.5380199999999998
2,Waist,27,3,No Fall,0.931755828571433,0.27044203638829434,5.980684,0.931755828571433,0.27044203638829434,5.980684,0.931755828571433,0.27044203638829434,5.980684,0.06682352941176212,28.531438093644763,981.8200000000002,0.06682352941176212,28.531438093644763,981.8200000000002,0.06682352941176212,28.531438093644763,981.8200000000002,1.1603860624999998,0.06937670640146835,0.4027799999999999,1.1603860624999998,0.06937670640146835,0.4027799999999999,1.1603860624999998,0.06937670640146835,0.4027799999999999
2,Waist,27,4,No Fall,0.9355872949579862,0.2814004879003072,4.58964,0.9355872949579862,0.2814004879003072,4.58964,0.9355872949579862,0.2814004879003072,4.58964,-3.5272500000000098,27.842836283651916,522.0600000000001,-3.5272500000000098,27.842836283651916,522.0600000000001,-3.5272500000000098,27.842836283651916,522.0600000000001,0.954858624999999,0.15131126451900684,0.5520200000000001,0.954858624999999,0.15131126451900684,0.5520200000000001,0.954858624999999,0.15131126451900684,0.5520200000000001
2,Waist,28,1,No Fall,0.9189086134453786,0.07684673646577819,0.5655920000000001,0.9189086134453786,0.07684673646577819,0.5655920000000001,0.9189086134453786,0.07684673646577819,0.5655920000000001,1.6589264705882296,10.698011466673798,106.19000000000001,1.6589264705882296,10.698011466673798,106.19000000000001,1.6589264705882296,10.698011466673798,106.19000000000001,1.110769362500002,0.060271620309460705,0.22973999999999983,1.110769362500002,0.060271620309460705,0.22973999999999983,1.110769362500002,0.060271620309460705,0.22973999999999983
2,Waist,28,2,No Fall,0.923743760504204,0.14468863034600513,1.0335839999999998,0.923743760504204,0.14468863034600513,1.0335839999999998,0.923743760504204,0.14468863034600513,1.0335839999999998,-3.7837647058823562,22.09232903838095,140.98000000000002,-3.7837647058823562,22.09232903838095,140.98000000000002,-3.7837647058823562,22.09232903838095,140.98000000000002,0.9566176375,0.16393289473715825,0.64176,0.9566176375,0.16393289473715825,0.64176,0.9566176375,0.16393289473715825,0.64176
2,Waist,28,3,No Fall,0.893385188235295,0.0939135339260732,0.643428,0.893385188235295,0.0939135339260732,0.643428,0.893385188235295,0.0939135339260732,0.643428,1.404455882352933,13.138120433656276,118.79000000000002,1.404455882352933,13.138120433656276,118.79000000000002,1.404455882352933,13.138120433656276,118.79000000000002,1.0418891000000006,0.12692785273557972,0.40138000000000007,1.0418891000000006,0.12692785273557972,0.40138000000000007,1.0418891000000006,0.12692785273557972,0.40138000000000007
2,Waist,28,4,No Fall,0.9078304495798307,0.14334804581098257,1.196576,0.9078304495798307,0.14334804581098257,1.196576,0.9078304495798307,0.14334804581098257,1.196576,-7.62464705882353,24.944979061436598,127.19000000000001,-7.62464705882353,24.944979061436598,127.19000000000001,-7.62464705882353,24.944979061436598,127.19000000000001,0.9476517749999982,0.15820550959397897,0.58786,0.9476517749999982,0.15820550959397897,0.58786,0.9476517749999982,0.15820550959397897,0.58786
2,Waist,29,1,No Fall,0.9167596193277303,0.07365493160231654,0.6344000000000001,0.9167596193277303,0.07365493160231654,0.6344000000000001,0.9167596193277303,0.07365493160231654,0.6344000000000001,1.635338235294112,11.219831342360154,86.87,1.635338235294112,11.219831342360154,86.87,1.635338235294112,11.219831342360154,86.87,0.997421075,0.1053044377090545,0.45499999999999996,0.997421075,0.1053044377090545,0.45499999999999996,0.997421075,0.1053044377090545,0.45499999999999996
2,Waist,29,2,No Fall,0.9201102621848724,0.09209177802702685,0.8571719999999999,0.9201102621848724,0.09209177802702685,0.8571719999999999,0.9201102621848724,0.09209177802702685,0.8571719999999999,1.5852794117647053,10.55542652922091,75.25,1.5852794117647053,10.55542652922091,75.25,1.5852794117647053,10.55542652922091,75.25,1.0040085124999991,0.03857710606671583,0.1870400000000001,1.0040085124999991,0.03857710606671583,0.1870400000000001,1.0040085124999991,0.03857710606671583,0.1870400000000001
2,Waist,30,1,No Fall,0.9084580319327732,0.14152540329645694,0.9601399999999999,0.9084580319327732,0.14152540329645694,0.9601399999999999,0.9084580319327732,0.14152540329645694,0.9601399999999999,7.314999999999979,17.354977464177143,110.81,7.314999999999979,17.354977464177143,110.81,7.314999999999979,17.354977464177143,110.81,0.9398634875000005,0.12345652300813482,0.5201,0.9398634875000005,0.12345652300813482,0.5201,0.9398634875000005,0.12345652300813482,0.5201
2,Waist,30,2,No Fall,0.925481542857144,0.14134904437823556,1.034804,0.925481542857144,0.14134904437823556,1.034804,0.925481542857144,0.14134904437823556,1.034804,-4.048058823529422,17.811098942151595,109.13,-4.048058823529422,17.811098942151595,109.13,-4.048058823529422,17.811098942151595,109.13,0.8234403624999992,0.13101731363416638,0.6291599999999999,0.8234403624999992,0.13101731363416638,0.6291599999999999,0.8234403624999992,0.13101731363416638,0.6291599999999999
2,Waist,31,1,No Fall,0.9143617042016798,0.09789061628362206,0.9025559999999999,0.9143617042016798,0.09789061628362206,0.9025559999999999,0.9143617042016798,0.09789061628362206,0.9025559999999999,4.343411764705902,13.006606233526234,105.63000000000001,4.343411764705902,13.006606233526234,105.63000000000001,4.343411764705902,13.006606233526234,105.63000000000001,1.0187034374999993,0.09623816204775547,0.37085999999999986,1.0187034374999993,0.09623816204775547,0.37085999999999986,1.0187034374999993,0.09623816204775547,0.37085999999999986
2,Waist,31,2,No Fall,0.9259403243697454,0.09281026610529095,0.8330159999999999,0.9259403243697454,0.09281026610529095,0.8330159999999999,0.9259403243697454,0.09281026610529095,0.8330159999999999,-0.4343823529411771,12.523637619285537,113.82000000000002,-0.4343823529411771,12.523637619285537,113.82000000000002,-0.4343823529411771,12.523637619285537,113.82000000000002,0.7815409875000003,0.08328837989579282,0.43357999999999997,0.7815409875000003,0.08328837989579282,0.43357999999999997,0.7815409875000003,0.08328837989579282,0.43357999999999997
2,Waist,32,1,No Fall,0.9310452042016827,0.09602729227284912,1.265384,0.9310452042016827,0.09602729227284912,1.265384,0.9310452042016827,0.09602729227284912,1.265384,1.8100588235294102,9.704657776341225,128.10000000000002,1.8100588235294102,9.704657776341225,128.10000000000002,1.8100588235294102,9.704657776341225,128.10000000000002,0.8563039624999982,0.051899041755441494,0.1915199999999999,0.8563039624999982,0.051899041755441494,0.1915199999999999,0.8563039624999982,0.051899041755441494,0.1915199999999999
2,Waist,32,2,No Fall,0.9284043142857165,0.14257138308921247,1.5803880000000001,0.9284043142857165,0.14257138308921247,1.5803880000000001,0.9284043142857165,0.14257138308921247,1.5803880000000001,1.171691176470587,15.487393743580558,152.04000000000002,1.171691176470587,15.487393743580558,152.04000000000002,1.171691176470587,15.487393743580558,152.04000000000002,0.8443646750000009,0.09883080349247764,0.42784,0.8443646750000009,0.09883080349247764,0.42784,0.8443646750000009,0.09883080349247764,0.42784
2,Waist,33,1,No Fall,0.9391672773109229,0.13386144578340925,1.2988119999999999,0.9391672773109229,0.13386144578340925,1.2988119999999999,0.9391672773109229,0.13386144578340925,1.2988119999999999,-3.98345588235294,17.954645250718936,129.92000000000002,-3.98345588235294,17.954645250718936,129.92000000000002,-3.98345588235294,17.954645250718936,129.92000000000002,0.9376420375,0.11180632965844729,0.4949,0.9376420375,0.11180632965844729,0.4949,0.9376420375,0.11180632965844729,0.4949
2,Waist,33,2,No Fall,0.9376632941176454,0.18825657608541166,1.573556,0.9376632941176454,0.18825657608541166,1.573556,0.9376632941176454,0.18825657608541166,1.573556,7.212750000000018,19.375083470473477,154.42000000000002,7.212750000000018,19.375083470473477,154.42000000000002,7.212750000000018,19.375083470473477,154.42000000000002,0.9495664499999984,0.13028540025976829,0.56994,0.9495664499999984,0.13028540025976829,0.56994,0.9495664499999984,0.13028540025976829,0.56994
2,Waist,34,1,No Fall,0.9326133655462174,0.11393747361189267,0.9518439999999999,0.9326133655462174,0.11393747361189267,0.9518439999999999,0.9326133655462174,0.11393747361189267,0.9518439999999999,-0.46567647058823536,12.24761709413326,121.17000000000002,-0.46567647058823536,12.24761709413326,121.17000000000002,-0.46567647058823536,12.24761709413326,121.17000000000002,0.9850028125000021,0.1766646981475701,0.5000800000000001,0.9850028125000021,0.1766646981475701,0.5000800000000001,0.9850028125000021,0.1766646981475701,0.5000800000000001
2,Waist,34,2,No Fall,0.9249712445378135,0.1503796547496475,1.414956,0.9249712445378135,0.1503796547496475,1.414956,0.9249712445378135,0.1503796547496475,1.414956,6.664088235294114,15.42368807188468,122.99000000000001,6.664088235294114,15.42368807188468,122.99000000000001,6.664088235294114,15.42368807188468,122.99000000000001,1.0275671875000005,0.17032785358289543,0.6000399999999999,1.0275671875000005,0.17032785358289543,0.6000399999999999,1.0275671875000005,0.17032785358289543,0.6000399999999999
2,Waist,35,1,No Fall,0.920939862184871,0.7083661508330265,3.74784,0.920939862184871,0.7083661508330265,3.74784,0.920939862184871,0.7083661508330265,3.74784,8.598029411764733,57.40725566408912,418.39000000000004,8.598029411764733,57.40725566408912,418.39000000000004,8.598029411764733,57.40725566408912,418.39000000000004,0.9221272375000011,0.12777290197423669,0.52584,0.9221272375000011,0.12777290197423669,0.52584,0.9221272375000011,0.12777290197423669,0.52584
2,Waist,35,2,No Fall,0.9335124235294121,0.7950845457362113,4.236084,0.9335124235294121,0.7950845457362113,4.236084,0.9335124235294121,0.7950845457362113,4.236084,-7.306250000000018,61.8272422630226,537.1800000000001,-7.306250000000018,61.8272422630226,537.1800000000001,-7.306250000000018,61.8272422630226,537.1800000000001,0.8241725625,0.13272746200547608,0.59192,0.8241725625,0.13272746200547608,0.59192,0.8241725625,0.13272746200547608,0.59192
2,Waist,36,1,No Fall,0.9414730260504245,0.6009052501364007,3.71978,0.9414730260504245,0.6009052501364007,3.71978,0.9414730260504245,0.6009052501364007,3.71978,-8.880529411764694,49.77802095563557,486.1500000000001,-8.880529411764694,49.77802095563557,486.1500000000001,-8.880529411764694,49.77802095563557,486.1500000000001,0.8697059874999999,0.12909522193754616,0.53886,0.8697059874999999,0.12909522193754616,0.53886,0.8697059874999999,0.12909522193754616,0.53886
2,Waist,36,2,No Fall,0.9341047899159657,0.6129140891856949,3.90278,0.9341047899159657,0.6129140891856949,3.90278,0.9341047899159657,0.6129140891856949,3.90278,9.635235294117626,50.5187318537413,449.61,9.635235294117626,50.5187318537413,449.61,9.635235294117626,50.5187318537413,449.61,1.0649065874999997,0.13709233348292024,0.67102,1.0649065874999997,0.13709233348292024,0.67102,1.0649065874999997,0.13709233348292024,0.67102
2,Waist,37,1,No Fall,0.9313597899159638,0.04739898013171559,1.8714799999999998,0.9313597899159638,0.04739898013171559,1.8714799999999998,0.9313597899159638,0.04739898013171559,1.8714799999999998,3.234676470588224,12.376844430750152,367.08000000000004,3.234676470588224,12.376844430750152,367.08000000000004,3.234676470588224,12.376844430750152,367.08000000000004,0.8615444250000003,0.04905053506627944,0.2732800000000001,0.8615444250000003,0.04905053506627944,0.2732800000000001,0.8615444250000003,0.04905053506627944,0.2732800000000001
2,Waist,37,2,No Fall,0.9259989663865544,0.017007898556233907,0.199592,0.9259989663865544,0.017007898556233907,0.199592,0.9259989663865544,0.017007898556233907,0.199592,2.996132352941178,5.2253151449928925,52.78000000000001,2.996132352941178,5.2253151449928925,52.78000000000001,2.996132352941178,5.2253151449928925,52.78000000000001,0.8668712499999986,0.044577846793030944,0.21111999999999997,0.8668712499999986,0.044577846793030944,0.21111999999999997,0.8668712499999986,0.044577846793030944,0.21111999999999997
2,Waist,38,1,No Fall,0.9221324378151278,0.04640635228140986,0.6834439999999998,0.9221324378151278,0.04640635228140986,0.6834439999999998,0.9221324378151278,0.04640635228140986,0.6834439999999998,4.88751470588235,9.957883363438366,88.06,4.88751470588235,9.957883363438366,88.06,4.88751470588235,9.957883363438366,88.06,0.8822022124999995,0.09459109653963312,0.41747999999999996,0.8822022124999995,0.09459109653963312,0.41747999999999996,0.8822022124999995,0.09459109653963312,0.41747999999999996
2,Waist,38,2,No Fall,0.9258565134453797,0.058815640493384155,1.0748199999999999,0.9258565134453797,0.058815640493384155,1.0748199999999999,0.9258565134453797,0.058815640493384155,1.0748199999999999,3.7076617647058887,10.859755098027028,121.94000000000001,3.7076617647058887,10.859755098027028,121.94000000000001,3.7076617647058887,10.859755098027028,121.94000000000001,0.8356817000000001,0.049846616774485444,0.34902,0.8356817000000001,0.049846616774485444,0.34902,0.8356817000000001,0.049846616774485444,0.34902
2,Waist,39,1,No Fall,0.9249593521008391,0.02976363902110246,0.4933679999999999,0.9249593521008391,0.02976363902110246,0.4933679999999999,0.9249593521008391,0.02976363902110246,0.4933679999999999,2.5311323529411753,6.494367071202504,83.79,2.5311323529411753,6.494367071202504,83.79,2.5311323529411753,6.494367071202504,83.79,0.840420087500001,0.03532900269271527,0.20328000000000002,0.840420087500001,0.03532900269271527,0.20328000000000002,0.840420087500001,0.03532900269271527,0.20328000000000002
2,Waist,39,2,No Fall,0.9223229218487389,0.013583453614809393,0.14347199999999993,0.9223229218487389,0.013583453614809393,0.14347199999999993,0.9223229218487389,0.013583453614809393,0.14347199999999993,1.5352058823529426,1.4155957196483437,12.530000000000001,1.5352058823529426,1.4155957196483437,12.530000000000001,1.5352058823529426,1.4155957196483437,12.530000000000001,0.7211351875000009,0.021835144974613356,0.11158000000000001,0.7211351875000009,0.021835144974613356,0.11158000000000001,0.7211351875000009,0.021835144974613356,0.11158000000000001
2,Waist,40,1,No Fall,0.9260766773109214,0.053670907519783394,0.5809639999999999,0.9260766773109214,0.053670907519783394,0.5809639999999999,0.9260766773109214,0.053670907519783394,0.5809639999999999,1.3604852941176446,11.21001574253498,97.23000000000002,1.3604852941176446,11.21001574253498,97.23000000000002,1.3604852941176446,11.21001574253498,97.23000000000002,0.8532102250000007,0.07938820401536278,0.45009999999999983,0.8532102250000007,0.07938820401536278,0.45009999999999983,0.8532102250000007,0.07938820401536278,0.45009999999999983
2,Waist,40,2,No Fall,0.9308507731092438,0.06030548178229696,0.9821,0.9308507731092438,0.06030548178229696,0.9821,0.9308507731092438,0.06030548178229696,0.9821,0.4005147058823515,10.183606465637729,131.60000000000002,0.4005147058823515,10.183606465637729,131.60000000000002,0.4005147058823515,10.183606465637729,131.60000000000002,0.7897623125000011,0.06101844572013575,0.31835999999999987,0.7897623125000011,0.06101844572013575,0.31835999999999987,0.7897623125000011,0.06101844572013575,0.31835999999999987
2,Waist,41,1,No Fall,0.9335029403361361,0.08064116262634545,1.6899440000000001,0.9335029403361361,0.08064116262634545,1.6899440000000001,0.9335029403361361,0.08064116262634545,1.6899440000000001,1.606970588235289,8.615303766340276,187.74,1.606970588235289,8.615303766340276,187.74,1.606970588235289,8.615303766340276,187.74,1.1989806499999986,0.017944722350600763,0.12095999999999996,1.1989806499999986,0.017944722350600763,0.12095999999999996,1.1989806499999986,0.017944722350600763,0.12095999999999996
2,Waist,41,2,No Fall,0.9371954907563047,0.06432741011768771,0.669048,0.9371954907563047,0.06432741011768771,0.669048,0.9371954907563047,0.06432741011768771,0.669048,1.6213382352941175,9.028078799112965,168.77,1.6213382352941175,9.028078799112965,168.77,1.6213382352941175,9.028078799112965,168.77,1.229993187499999,0.01918494751678669,0.1495200000000001,1.229993187499999,0.01918494751678669,0.1495200000000001,1.229993187499999,0.01918494751678669,0.1495200000000001
2,Waist,41,3,No Fall,0.9206566478991585,0.07236336321827032,0.9247599999999999,0.9206566478991585,0.07236336321827032,0.9247599999999999,0.9206566478991585,0.07236336321827032,0.9247599999999999,1.3430735294117657,6.086048933674929,83.51,1.3430735294117657,6.086048933674929,83.51,1.3430735294117657,6.086048933674929,83.51,1.2411938875000008,0.022838840771637548,0.2723,1.2411938875000008,0.022838840771637548,0.2723,1.2411938875000008,0.022838840771637548,0.2723
2,Waist,41,4,No Fall,0.9269037655462193,0.09762579981156037,0.8081280000000001,0.9269037655462193,0.09762579981156037,0.8081280000000001,0.9269037655462193,0.09762579981156037,0.8081280000000001,1.621985294117646,7.425313549391763,74.97,1.621985294117646,7.425313549391763,74.97,1.621985294117646,7.425313549391763,74.97,1.2461251249999987,0.008606398959424347,0.05852000000000013,1.2461251249999987,0.008606398959424347,0.05852000000000013,1.2461251249999987,0.008606398959424347,0.05852000000000013
2,Waist,41,5,No Fall,0.9257868504201671,0.08267122913882241,0.8552199999999999,0.9257868504201671,0.08267122913882241,0.8552199999999999,0.9257868504201671,0.08267122913882241,0.8552199999999999,1.5049117647058816,6.872625190143175,78.96000000000001,1.5049117647058816,6.872625190143175,78.96000000000001,1.5049117647058816,6.872625190143175,78.96000000000001,1.2383826874999984,0.010311305029407032,0.07294,1.2383826874999984,0.010311305029407032,0.07294,1.2383826874999984,0.010311305029407032,0.07294
2,Waist,41,6,No Fall,0.9449386462184886,0.06085109739615632,0.6963759999999999,0.9449386462184886,0.06085109739615632,0.6963759999999999,0.9449386462184886,0.06085109739615632,0.6963759999999999,1.3307647058823537,7.363312062776173,112.63000000000001,1.3307647058823537,7.363312062776173,112.63000000000001,1.3307647058823537,7.363312062776173,112.63000000000001,1.2261824750000008,0.04450037314316084,0.59752,1.2261824750000008,0.04450037314316084,0.59752,1.2261824750000008,0.04450037314316084,0.59752
2,Waist,41,7,No Fall,0.9447348857142859,0.11345249812093804,1.524268,0.9447348857142859,0.11345249812093804,1.524268,0.9447348857142859,0.11345249812093804,1.524268,1.4432794117647059,11.817976154680647,185.99,1.4432794117647059,11.817976154680647,185.99,1.4432794117647059,11.817976154680647,185.99,1.2199974499999993,0.013403439730919358,0.08204000000000011,1.2199974499999993,0.013403439730919358,0.08204000000000011,1.2199974499999993,0.013403439730919358,0.08204000000000011
2,Waist,41,8,No Fall,0.9574980336134477,0.14100729398447837,2.41072,0.9574980336134477,0.14100729398447837,2.41072,0.9574980336134477,0.14100729398447837,2.41072,1.6401029411764672,13.396810205860946,291.34000000000003,1.6401029411764672,13.396810205860946,291.34000000000003,1.6401029411764672,13.396810205860946,291.34000000000003,1.2152698249999994,0.011517011219779319,0.11115999999999993,1.2152698249999994,0.011517011219779319,0.11115999999999993,1.2152698249999994,0.011517011219779319,0.11115999999999993
2,Waist,41,10,No Fall,0.9283018957983192,0.03968630789750916,0.2525399999999999,0.9283018957983192,0.03968630789750916,0.2525399999999999,0.9283018957983192,0.03968630789750916,0.2525399999999999,1.7302058823529403,3.3942107244776523,25.340000000000003,1.7302058823529403,3.3942107244776523,25.340000000000003,1.7302058823529403,3.3942107244776523,25.340000000000003,0.9206791124999997,0.189041215689147,0.83734,0.9206791124999997,0.189041215689147,0.83734,0.9206791124999997,0.189041215689147,0.83734
2,Waist,41,12,No Fall,0.9622246109243685,0.03865435653553394,0.6934480000000001,0.9622246109243685,0.03865435653553394,0.6934480000000001,0.9622246109243685,0.03865435653553394,0.6934480000000001,0.8426764705882389,6.031430252719062,84.91000000000001,0.8426764705882389,6.031430252719062,84.91000000000001,0.8426764705882389,6.031430252719062,84.91000000000001,1.0708706750000012,0.10255350373951225,0.4202800000000001,1.0708706750000012,0.10255350373951225,0.4202800000000001,1.0708706750000012,0.10255350373951225,0.4202800000000001
2,Waist,41,14,No Fall,0.9585133504201672,0.03256251899848485,0.20983999999999992,0.9585133504201672,0.03256251899848485,0.20983999999999992,0.9585133504201672,0.03256251899848485,0.20983999999999992,1.3498088235294121,2.3441717762718173,14.0,1.3498088235294121,2.3441717762718173,14.0,1.3498088235294121,2.3441717762718173,14.0,0.8511464499999992,0.1640106848222316,0.9826599999999999,0.8511464499999992,0.1640106848222316,0.9826599999999999,0.8511464499999992,0.1640106848222316,0.9826599999999999
2,Waist,42,1,No Fall,0.8503915168067199,0.07789983017698443,0.4879999999999999,0.8503915168067199,0.07789983017698443,0.4879999999999999,0.8503915168067199,0.07789983017698443,0.4879999999999999,1.538838235294119,5.273398733616413,49.49,1.538838235294119,5.273398733616413,49.49,1.538838235294119,5.273398733616413,49.49,0.5900131999999991,0.07781473234302115,0.4614399999999999,0.5900131999999991,0.07781473234302115,0.4614399999999999,0.5900131999999991,0.07781473234302115,0.4614399999999999
2,Waist,42,2,No Fall,0.8910294605042037,0.060086140926358854,0.643916,0.8910294605042037,0.060086140926358854,0.643916,0.8910294605042037,0.060086140926358854,0.643916,1.1766323529411788,3.3190835347956336,51.03,1.1766323529411788,3.3190835347956336,51.03,1.1766323529411788,3.3190835347956336,51.03,0.7553920500000001,0.02820957212139251,0.19012000000000007,0.7553920500000001,0.02820957212139251,0.19012000000000007,0.7553920500000001,0.02820957212139251,0.19012000000000007
2,Waist,42,4,No Fall,0.877071071428572,0.05994830383084909,0.533872,0.877071071428572,0.05994830383084909,0.533872,0.877071071428572,0.05994830383084909,0.533872,1.3377941176470607,2.232312168307915,22.400000000000002,1.3377941176470607,2.232312168307915,22.400000000000002,1.3377941176470607,2.232312168307915,22.400000000000002,0.7455279124999994,0.02336082142452106,0.11731999999999998,0.7455279124999994,0.02336082142452106,0.11731999999999998,0.7455279124999994,0.02336082142452106,0.11731999999999998
2,Waist,42,6,No Fall,0.8767647386554608,0.05199838152040842,0.5041039999999999,0.8767647386554608,0.05199838152040842,0.5041039999999999,0.8767647386554608,0.05199838152040842,0.5041039999999999,0.7521323529411756,2.9669963989099615,27.370000000000005,0.7521323529411756,2.9669963989099615,27.370000000000005,0.7521323529411756,2.9669963989099615,27.370000000000005,0.4718252875000007,0.06556036178164698,0.25787999999999994,0.4718252875000007,0.06556036178164698,0.25787999999999994,0.4718252875000007,0.06556036178164698,0.25787999999999994
2,Waist,42,7,No Fall,0.847802861344534,0.046959670676345225,0.39723200000000014,0.847802861344534,0.046959670676345225,0.39723200000000014,0.847802861344534,0.046959670676345225,0.39723200000000014,1.3535294117646952,2.5678147274374252,34.300000000000004,1.3535294117646952,2.5678147274374252,34.300000000000004,1.3535294117646952,2.5678147274374252,34.300000000000004,0.44138228750000047,0.04220294234685014,0.19432,0.44138228750000047,0.04220294234685014,0.19432,0.44138228750000047,0.04220294234685014,0.19432
2,Waist,42,8,No Fall,0.8940804857142867,0.023417306414061947,0.167628,0.8940804857142867,0.023417306414061947,0.167628,0.8940804857142867,0.023417306414061947,0.167628,1.4434558823529455,1.0019276913553332,10.71,1.4434558823529455,1.0019276913553332,10.71,1.4434558823529455,1.0019276913553332,10.71,0.4455430000000004,0.025525758210239842,0.20691999999999994,0.4455430000000004,0.025525758210239842,0.20691999999999994,0.4455430000000004,0.025525758210239842,0.20691999999999994
2,Waist,42,10,No Fall,0.8028683134453798,0.004321753480439384,0.044408,0.8028683134453798,0.004321753480439384,0.044408,0.8028683134453798,0.004321753480439384,0.044408,1.36972058823529,0.7341131462167748,7.700000000000001,1.36972058823529,0.7341131462167748,7.700000000000001,1.36972058823529,0.7341131462167748,7.700000000000001,0.9231593000000031,0.039617777186235964,0.18857999999999997,0.9231593000000031,0.039617777186235964,0.18857999999999997,0.9231593000000031,0.039617777186235964,0.18857999999999997
2,Waist,42,13,No Fall,0.8007447445378173,0.011483773665069148,0.07002799999999998,0.8007447445378173,0.011483773665069148,0.07002799999999998,0.8007447445378173,0.011483773665069148,0.07002799999999998,1.4361911764705835,0.7390491335327128,7.910000000000001,1.4361911764705835,0.7390491335327128,7.910000000000001,1.4361911764705835,0.7390491335327128,7.910000000000001,0.8281771750000004,0.04183733956507097,0.19963999999999993,0.8281771750000004,0.04183733956507097,0.19963999999999993,0.8281771750000004,0.04183733956507097,0.19963999999999993
2,Waist,42,14,No Fall,0.8202794563025211,0.01755537795902081,0.1012599999999999,0.8202794563025211,0.01755537795902081,0.1012599999999999,0.8202794563025211,0.01755537795902081,0.1012599999999999,1.404264705882348,0.9082917779384997,8.96,1.404264705882348,0.9082917779384997,8.96,1.404264705882348,0.9082917779384997,8.96,0.9633834875000015,0.1818639681476414,0.7222599999999999,0.9633834875000015,0.1818639681476414,0.7222599999999999,0.9633834875000015,0.1818639681476414,0.7222599999999999
2,Waist,43,2,No Fall,0.9513421084033604,0.5435488733750127,3.8000559999999997,0.9513421084033604,0.5435488733750127,3.8000559999999997,0.9513421084033604,0.5435488733750127,3.8000559999999997,1.944647058823533,52.09092776857121,539.5600000000001,1.944647058823533,52.09092776857121,539.5600000000001,1.944647058823533,52.09092776857121,539.5600000000001,1.1064181624999998,0.035696039512761846,0.2617999999999999,1.1064181624999998,0.035696039512761846,0.2617999999999999,1.1064181624999998,0.035696039512761846,0.2617999999999999
2,Waist,43,3,No Fall,0.9539064663865569,0.6171077108883868,3.8683759999999996,0.9539064663865569,0.6171077108883868,3.8683759999999996,0.9539064663865569,0.6171077108883868,3.8683759999999996,1.4563088235294142,49.25285349627932,487.20000000000005,1.4563088235294142,49.25285349627932,487.20000000000005,1.4563088235294142,49.25285349627932,487.20000000000005,1.0857308875,0.04512474722887806,0.24373999999999996,1.0857308875,0.04512474722887806,0.24373999999999996,1.0857308875,0.04512474722887806,0.24373999999999996
2,Waist,44,1,No Fall,0.9527203495798305,0.512637600507674,3.4482079999999997,0.9527203495798305,0.512637600507674,3.4482079999999997,0.9527203495798305,0.512637600507674,3.4482079999999997,1.6220588235294155,46.3099965005638,451.01000000000005,1.6220588235294155,46.3099965005638,451.01000000000005,1.6220588235294155,46.3099965005638,451.01000000000005,1.3342657124999997,0.022112678132718815,0.14042,1.3342657124999997,0.022112678132718815,0.14042,1.3342657124999997,0.022112678132718815,0.14042
2,Waist,44,2,No Fall,0.9440269268907571,0.5816213137151708,3.8944840000000003,0.9440269268907571,0.5816213137151708,3.8944840000000003,0.9440269268907571,0.5816213137151708,3.8944840000000003,1.6821470588235334,56.02385059004157,598.08,1.6821470588235334,56.02385059004157,598.08,1.6821470588235334,56.02385059004157,598.08,1.2142476500000001,0.06343539255116243,0.4033399999999999,1.2142476500000001,0.06343539255116243,0.4033399999999999,1.2142476500000001,0.06343539255116243,0.4033399999999999
2,Waist,44,3,No Fall,0.9508794823529405,0.6557990365108095,4.617699999999999,0.9508794823529405,0.6557990365108095,4.617699999999999,0.9508794823529405,0.6557990365108095,4.617699999999999,1.6462941176470651,59.01553193158166,701.54,1.6462941176470651,59.01553193158166,701.54,1.6462941176470651,59.01553193158166,701.54,1.097638412500001,0.04491822681459554,0.2349199999999999,1.097638412500001,0.04491822681459554,0.2349199999999999,1.097638412500001,0.04491822681459554,0.2349199999999999
2,Waist,101,1,Fall,0.2573577697478994,0.5902945172447649,6.452824,0.2573577697478994,0.5902945172447649,6.452824,0.2573577697478994,0.5902945172447649,6.452824,5.1674411764708275,49.31731942234893,1083.1100000000001,5.1674411764708275,49.31731942234893,1083.1100000000001,5.1674411764708275,49.31731942234893,1083.1100000000001,1.1170959624999985,0.18372329329118772,0.6143199999999999,1.1170959624999985,0.18372329329118772,0.6143199999999999,1.1170959624999985,0.18372329329118772,0.6143199999999999
2,Waist,104,2,Fall,-0.8913755201680674,0.3204108890024122,9.136824,-0.8913755201680674,0.3204108890024122,9.136824,-0.8913755201680674,0.3204108890024122,9.136824,-3.4855441176470645,40.920494976706095,553.84,-3.4855441176470645,40.920494976706095,553.84,-3.4855441176470645,40.920494976706095,553.84,0.6423963875000004,0.11503605014394526,0.62398,0.6423963875000004,0.11503605014394526,0.62398,0.6423963875000004,0.11503605014394526,0.62398
2,Waist,105,1,Fall,0.42727132184873867,0.5320584831548489,2.635932,0.42727132184873867,0.5320584831548489,2.635932,0.42727132184873867,0.5320584831548489,2.635932,1.4051911764705867,19.1006558968387,363.09000000000003,1.4051911764705867,19.1006558968387,363.09000000000003,1.4051911764705867,19.1006558968387,363.09000000000003,0.8552592999999983,0.17178383598712546,0.6554800000000001,0.8552592999999983,0.17178383598712546,0.6554800000000001,0.8552592999999983,0.17178383598712546,0.6554800000000001
2,Waist,105,2,Fall,0.5553232394957994,0.423213549097677,3.179808,0.5553232394957994,0.423213549097677,3.179808,0.5553232394957994,0.423213549097677,3.179808,2.76504411764705,29.636174001612307,403.55000000000007,2.76504411764705,29.636174001612307,403.55000000000007,2.76504411764705,29.636174001612307,403.55000000000007,0.8517047874999996,0.19221238409167027,0.8345400000000001,0.8517047874999996,0.19221238409167027,0.8345400000000001,0.8517047874999996,0.19221238409167027,0.8345400000000001
