SubjectID,Device,ActivityID,TrialNo,Fall,Mean Acc X,Std Acc X,Rng Acc X,Mean Acc Y,Std Acc Y,Rng Acc Y,Mean Acc Z,Std Acc Z,Rng Acc Z,Mean Gyr X,Std Gyr X,Rng Gyr X,Mean Gyr Y,Std Gyr Y,Rng Gyr Y,Mean Gyr Z,Std Gyr Z,Rng Gyr Z,Mean Mag X,Std Mag X,Rng Mag X,Mean Mag Y,Std Mag Y,Rng Mag Y,Mean Mag Z,Std Mag Z,Rng Mag Z
1,Wrist,1,1,No Fall,-0.37421982689075606,0.297577256404318,1.8663560000000001,-0.37421982689075606,0.297577256404318,1.8663560000000001,-0.37421982689075606,0.297577256404318,1.8663560000000001,1.1879999999999984,22.942086050927117,179.34000000000003,1.1879999999999984,22.942086050927117,179.34000000000003,1.1879999999999984,22.942086050927117,179.34000000000003,0.8162788374999996,0.2766993154127189,0.6578599999999999,0.8162788374999996,0.2766993154127189,0.6578599999999999,0.8162788374999996,0.2766993154127189,0.6578599999999999
1,Wrist,1,2,No Fall,-0.32769184621848735,0.2671683634145242,1.4400879999999998,-0.32769184621848735,0.2671683634145242,1.4400879999999998,-0.32769184621848735,0.2671683634145242,1.4400879999999998,0.8609852941176462,22.005303633380326,196.28000000000003,0.8609852941176462,22.005303633380326,196.28000000000003,0.8609852941176462,22.005303633380326,196.28000000000003,0.8393287000000007,0.2654898542402334,0.6794199999999999,0.8393287000000007,0.2654898542402334,0.6794199999999999,0.8393287000000007,0.2654898542402334,0.6794199999999999
1,Wrist,1,3,No Fall,-0.3381465285714295,0.32784683771197815,1.6045440000000002,-0.3381465285714295,0.32784683771197815,1.6045440000000002,-0.3381465285714295,0.32784683771197815,1.6045440000000002,0.3932499999999996,29.710157601099667,246.05,0.3932499999999996,29.710157601099667,246.05,0.3932499999999996,29.710157601099667,246.05,0.8294373499999995,0.2677009792397222,0.665,0.8294373499999995,0.2677009792397222,0.665,0.8294373499999995,0.2677009792397222,0.665
1,Wrist,1,4,No Fall,-0.3315181865546227,0.2695625715146122,1.307596,-0.3315181865546227,0.2695625715146122,1.307596,-0.3315181865546227,0.2695625715146122,1.307596,0.8639852941176455,23.04950114209749,261.45000000000005,0.8639852941176455,23.04950114209749,261.45000000000005,0.8639852941176455,23.04950114209749,261.45000000000005,0.8501792249999994,0.23868016552236376,0.6325199999999999,0.8501792249999994,0.23868016552236376,0.6325199999999999,0.8501792249999994,0.23868016552236376,0.6325199999999999
1,Wrist,2,1,No Fall,-0.37386131092436986,0.2978271983357259,1.8663560000000001,-0.37386131092436986,0.2978271983357259,1.8663560000000001,-0.37386131092436986,0.2978271983357259,1.8663560000000001,1.2067058823529417,22.942732771952713,179.34000000000003,1.2067058823529417,22.942732771952713,179.34000000000003,1.2067058823529417,22.942732771952713,179.34000000000003,0.8140515250000001,0.2750831182449932,0.6574399999999998,0.8140515250000001,0.2750831182449932,0.6574399999999998,0.8140515250000001,0.2750831182449932,0.6574399999999998
1,Wrist,2,2,No Fall,-0.32812996974789854,0.2669205848009096,1.4400879999999998,-0.32812996974789854,0.2669205848009096,1.4400879999999998,-0.32812996974789854,0.2669205848009096,1.4400879999999998,0.8423823529411788,22.00666310482992,196.28000000000003,0.8423823529411788,22.00666310482992,196.28000000000003,0.8423823529411788,22.00666310482992,196.28000000000003,0.8369871124999994,0.26405976855253266,0.6794199999999999,0.8369871124999994,0.26405976855253266,0.6794199999999999,0.8369871124999994,0.26405976855253266,0.6794199999999999
1,Wrist,2,3,No Fall,-0.35182944369748026,0.3194209322886826,1.6045440000000002,-0.35182944369748026,0.3194209322886826,1.6045440000000002,-0.35182944369748026,0.3194209322886826,1.6045440000000002,0.4123970588235291,29.709606620788616,246.05,0.4123970588235291,29.709606620788616,246.05,0.4123970588235291,29.709606620788616,246.05,0.8247864624999994,0.2646516811635632,0.665,0.8247864624999994,0.2646516811635632,0.665,0.8247864624999994,0.2646516811635632,0.665
1,Wrist,2,4,No Fall,-0.32899622100840403,0.27097577816758517,1.307596,-0.32899622100840403,0.27097577816758517,1.307596,-0.32899622100840403,0.27097577816758517,1.307596,0.8690441176470574,23.049551293348316,261.45000000000005,0.8690441176470574,23.049551293348316,261.45000000000005,0.8690441176470574,23.049551293348316,261.45000000000005,0.8498963374999994,0.23851350281635414,0.6325199999999999,0.8498963374999994,0.23851350281635414,0.6325199999999999,0.8498963374999994,0.23851350281635414,0.6325199999999999
1,Wrist,3,1,No Fall,-0.37397987647058845,0.2977445952421866,1.8663560000000001,-0.37397987647058845,0.2977445952421866,1.8663560000000001,-0.37397987647058845,0.2977445952421866,1.8663560000000001,1.1802794117647017,22.94237581537419,179.34000000000003,1.1802794117647017,22.94237581537419,179.34000000000003,1.1802794117647017,22.94237581537419,179.34000000000003,0.8122114874999989,0.2737276453131249,0.6574399999999998,0.8122114874999989,0.2737276453131249,0.6574399999999998,0.8122114874999989,0.2737276453131249,0.6574399999999998
1,Wrist,3,2,No Fall,-0.3292635957983181,0.266249723152468,1.4400879999999998,-0.3292635957983181,0.266249723152468,1.4400879999999998,-0.3292635957983181,0.266249723152468,1.4400879999999998,0.8384705882352963,22.00666907582703,196.28000000000003,0.8384705882352963,22.00666907582703,196.28000000000003,0.8384705882352963,22.00666907582703,196.28000000000003,0.8341067000000014,0.2622877241704553,0.6794199999999999,0.8341067000000014,0.2622877241704553,0.6794199999999999,0.8341067000000014,0.2622877241704553,0.6794199999999999
1,Wrist,3,3,No Fall,-0.3681067042016822,0.30828739035234787,1.6045440000000002,-0.3681067042016822,0.30828739035234787,1.6045440000000002,-0.3681067042016822,0.30828739035234787,1.6045440000000002,0.43282352941176283,29.710485553209917,246.05,0.43282352941176283,29.710485553209917,246.05,0.43282352941176283,29.710485553209917,246.05,0.8192309999999998,0.2608620986979244,0.665,0.8192309999999998,0.2608620986979244,0.665,0.8192309999999998,0.2608620986979244,0.665
1,Wrist,3,4,No Fall,-0.3260236243697482,0.2725715731290342,1.307596,-0.3260236243697482,0.2725715731290342,1.307596,-0.3260236243697482,0.2725715731290342,1.307596,0.8626323529411746,23.04906433546077,261.45000000000005,0.8626323529411746,23.04906433546077,261.45000000000005,0.8626323529411746,23.04906433546077,261.45000000000005,0.8498244125000002,0.23847824662870523,0.6325199999999999,0.8498244125000002,0.23847824662870523,0.6325199999999999,0.8498244125000002,0.23847824662870523,0.6325199999999999
1,Wrist,4,1,No Fall,-0.20402090756302518,0.12307293312867448,1.473272,-0.20402090756302518,0.12307293312867448,1.473272,-0.20402090756302518,0.12307293312867448,1.473272,0.01479411764705764,13.049624228231794,190.12,0.01479411764705764,13.049624228231794,190.12,0.01479411764705764,13.049624228231794,190.12,0.9650222749999982,0.12261267556396847,0.6873999999999998,0.9650222749999982,0.12261267556396847,0.6873999999999998,0.9650222749999982,0.12261267556396847,0.6873999999999998
1,Wrist,4,2,No Fall,-0.19382227142857153,0.14176070028611912,3.473096,-0.19382227142857153,0.14176070028611912,3.473096,-0.19382227142857153,0.14176070028611912,3.473096,0.4795441176470596,20.16781938718072,321.72,0.4795441176470596,20.16781938718072,321.72,0.4795441176470596,20.16781938718072,321.72,0.964282637499999,0.12745707102153836,0.73794,0.964282637499999,0.12745707102153836,0.73794,0.964282637499999,0.12745707102153836,0.73794
1,Wrist,4,3,No Fall,-0.18601027310924287,0.10956994152089063,2.155252,-0.18601027310924287,0.10956994152089063,2.155252,-0.18601027310924287,0.10956994152089063,2.155252,0.8499558823529432,15.706431635602348,263.90000000000003,0.8499558823529432,15.706431635602348,263.90000000000003,0.8499558823529432,15.706431635602348,263.90000000000003,0.9709398124999994,0.09400032401160267,0.6461000000000001,0.9709398124999994,0.09400032401160267,0.6461000000000001,0.9709398124999994,0.09400032401160267,0.6461000000000001
1,Wrist,4,4,No Fall,-0.18283637647058845,0.11679256408117465,2.30824,-0.18283637647058845,0.11679256408117465,2.30824,-0.18283637647058845,0.11679256408117465,2.30824,0.5356617647058831,19.596428902836795,337.33000000000004,0.5356617647058831,19.596428902836795,337.33000000000004,0.5356617647058831,19.596428902836795,337.33000000000004,0.9708954500000001,0.0920545556996672,0.6475,0.9708954500000001,0.0920545556996672,0.6475,0.9708954500000001,0.0920545556996672,0.6475
1,Wrist,5,1,No Fall,-0.4015139436974801,0.34085895586915377,1.42252,-0.4015139436974801,0.34085895586915377,1.42252,-0.4015139436974801,0.34085895586915377,1.42252,4.572294117647048,35.45141247614159,181.37,4.572294117647048,35.45141247614159,181.37,4.572294117647048,35.45141247614159,181.37,0.8658613249999993,0.13035966583185066,0.3845799999999999,0.8658613249999993,0.13035966583185066,0.3845799999999999,0.8658613249999993,0.13035966583185066,0.3845799999999999
1,Wrist,5,2,No Fall,-0.32748557394957994,0.3054722076319826,1.30662,-0.32748557394957994,0.3054722076319826,1.30662,-0.32748557394957994,0.3054722076319826,1.30662,0.7009558823529456,48.10953985607238,303.59000000000003,0.7009558823529456,48.10953985607238,303.59000000000003,0.7009558823529456,48.10953985607238,303.59000000000003,0.9018474500000012,0.12855983759089892,0.40348000000000006,0.9018474500000012,0.12855983759089892,0.40348000000000006,0.9018474500000012,0.12855983759089892,0.40348000000000006
1,Wrist,5,3,No Fall,-0.4246582151260504,0.3194401447639489,1.0030839999999999,-0.4246582151260504,0.3194401447639489,1.0030839999999999,-0.4246582151260504,0.3194401447639489,1.0030839999999999,3.538367647058835,28.595900550004266,153.3,3.538367647058835,28.595900550004266,153.3,3.538367647058835,28.595900550004266,153.3,0.8846567624999999,0.10944886808675545,0.3393600000000001,0.8846567624999999,0.10944886808675545,0.3393600000000001,0.8846567624999999,0.10944886808675545,0.3393600000000001
1,Wrist,5,4,No Fall,-0.3004936378151261,0.3002976648529873,1.512068,-0.3004936378151261,0.3002976648529873,1.512068,-0.3004936378151261,0.3002976648529873,1.512068,0.7743529411764661,46.124250806057056,340.06000000000006,0.7743529411764661,46.124250806057056,340.06000000000006,0.7743529411764661,46.124250806057056,340.06000000000006,0.9199378999999996,0.11344151018359842,0.4090799999999999,0.9199378999999996,0.11344151018359842,0.4090799999999999,0.9199378999999996,0.11344151018359842,0.4090799999999999
1,Wrist,6,1,No Fall,-0.4352136243697486,0.3381396899196642,1.42252,-0.4352136243697486,0.3381396899196642,1.42252,-0.4352136243697486,0.3381396899196642,1.42252,1.2286470588235225,39.445776596462,221.90000000000003,1.2286470588235225,39.445776596462,221.90000000000003,1.2286470588235225,39.445776596462,221.90000000000003,0.8552447749999986,0.1314857317667427,0.4031999999999999,0.8552447749999986,0.1314857317667427,0.4031999999999999,0.8552447749999986,0.1314857317667427,0.4031999999999999
1,Wrist,6,2,No Fall,-0.3266066100840327,0.305932451955024,1.30662,-0.3266066100840327,0.305932451955024,1.30662,-0.3266066100840327,0.305932451955024,1.30662,0.6630735294117635,48.1095261833771,303.59000000000003,0.6630735294117635,48.1095261833771,303.59000000000003,0.6630735294117635,48.1095261833771,303.59000000000003,0.9022150374999987,0.12882779837109792,0.40348000000000006,0.9022150374999987,0.12882779837109792,0.40348000000000006,0.9022150374999987,0.12882779837109792,0.40348000000000006
1,Wrist,6,3,No Fall,-0.4531793546218488,0.31726903322271255,1.015528,-0.4531793546218488,0.31726903322271255,1.015528,-0.4531793546218488,0.31726903322271255,1.015528,1.3868529411764805,32.344428913676175,164.5,1.3868529411764805,32.344428913676175,164.5,1.3868529411764805,32.344428913676175,164.5,0.8817155375000008,0.11428591222639585,0.3609199999999999,0.8817155375000008,0.11428591222639585,0.3609199999999999,0.8817155375000008,0.11428591222639585,0.3609199999999999
1,Wrist,6,4,No Fall,-0.2955301857142845,0.3024945909693577,1.512068,-0.2955301857142845,0.3024945909693577,1.512068,-0.2955301857142845,0.3024945909693577,1.512068,0.812808823529406,46.1247289513266,340.06000000000006,0.812808823529406,46.1247289513266,340.06000000000006,0.812808823529406,46.1247289513266,340.06000000000006,0.9168243000000003,0.11135542370042967,0.4090799999999999,0.9168243000000003,0.11135542370042967,0.4090799999999999,0.9168243000000003,0.11135542370042967,0.4090799999999999
1,Wrist,7,1,No Fall,-0.39936115630252217,0.33228652909133505,1.42252,-0.39936115630252217,0.33228652909133505,1.42252,-0.39936115630252217,0.33228652909133505,1.42252,-1.6327647058823482,36.51027503239413,221.90000000000003,-1.6327647058823482,36.51027503239413,221.90000000000003,-1.6327647058823482,36.51027503239413,221.90000000000003,0.8729099749999988,0.134728903624721,0.4031999999999999,0.8729099749999988,0.134728903624721,0.4031999999999999,0.8729099749999988,0.134728903624721,0.4031999999999999
1,Wrist,7,2,No Fall,-0.3250540831932768,0.3067444266330239,1.30662,-0.3250540831932768,0.3067444266330239,1.30662,-0.3250540831932768,0.3067444266330239,1.30662,0.6537647058823545,48.10926541282822,303.59000000000003,0.6537647058823545,48.10926541282822,303.59000000000003,0.6537647058823545,48.10926541282822,303.59000000000003,0.9020654999999995,0.12871693074694196,0.40348000000000006,0.9020654999999995,0.12871693074694196,0.40348000000000006,0.9020654999999995,0.12871693074694196,0.40348000000000006
1,Wrist,7,3,No Fall,-0.4253769386554617,0.3112644423345525,1.015528,-0.4253769386554617,0.3112644423345525,1.015528,-0.4253769386554617,0.3112644423345525,1.015528,-0.8769411764706008,29.229186289278207,157.71000000000004,-0.8769411764706008,29.229186289278207,157.71000000000004,-0.8769411764706008,29.229186289278207,157.71000000000004,0.8973188000000014,0.11758116504161216,0.3609199999999999,0.8973188000000014,0.11758116504161216,0.3609199999999999,0.8973188000000014,0.11758116504161216,0.3609199999999999
1,Wrist,7,4,No Fall,-0.29080847815126004,0.3044899745777564,1.512068,-0.29080847815126004,0.3044899745777564,1.512068,-0.29080847815126004,0.3044899745777564,1.512068,0.8119411764705865,46.12483289048334,340.06000000000006,0.8119411764705865,46.12483289048334,340.06000000000006,0.8119411764705865,46.12483289048334,340.06000000000006,0.9113004249999997,0.10730358911503135,0.4090799999999999,0.9113004249999997,0.10730358911503135,0.4090799999999999,0.9113004249999997,0.10730358911503135,0.4090799999999999
1,Wrist,8,1,No Fall,-0.4788854722689073,0.3172226127331245,0.805932,-0.4788854722689073,0.3172226127331245,0.805932,-0.4788854722689073,0.3172226127331245,0.805932,2.8253676470588283,17.909744448150867,202.44,2.8253676470588283,17.909744448150867,202.44,2.8253676470588283,17.909744448150867,202.44,0.9326414125000007,0.061425197260907866,0.29190000000000005,0.9326414125000007,0.061425197260907866,0.29190000000000005,0.9326414125000007,0.061425197260907866,0.29190000000000005
1,Wrist,8,2,No Fall,-0.4415643394957984,0.3506375574012956,0.8903559999999999,-0.4415643394957984,0.3506375574012956,0.8903559999999999,-0.4415643394957984,0.3506375574012956,0.8903559999999999,3.082132352941182,19.388452830043114,261.31,3.082132352941182,19.388452830043114,261.31,3.082132352941182,19.388452830043114,261.31,0.9446678500000009,0.057103348655265285,0.19781999999999988,0.9446678500000009,0.057103348655265285,0.19781999999999988,0.9446678500000009,0.057103348655265285,0.19781999999999988
1,Wrist,8,3,No Fall,-0.4671663983193271,0.3152071791026196,0.7590840000000001,-0.4671663983193271,0.3152071791026196,0.7590840000000001,-0.4671663983193271,0.3152071791026196,0.7590840000000001,2.467544117647065,14.030632415329576,139.23000000000002,2.467544117647065,14.030632415329576,139.23000000000002,2.467544117647065,14.030632415329576,139.23000000000002,0.9140879124999988,0.07496527693611657,0.29413999999999996,0.9140879124999988,0.07496527693611657,0.29413999999999996,0.9140879124999988,0.07496527693611657,0.29413999999999996
1,Wrist,8,4,No Fall,-0.43221785798319334,0.3409185369168243,0.9823439999999999,-0.43221785798319334,0.3409185369168243,0.9823439999999999,-0.43221785798319334,0.3409185369168243,0.9823439999999999,2.967823529411761,23.891326139172975,319.97,2.967823529411761,23.891326139172975,319.97,2.967823529411761,23.891326139172975,319.97,0.9303970374999975,0.07599754295408497,0.3474799999999999,0.9303970374999975,0.07599754295408497,0.3474799999999999,0.9303970374999975,0.07599754295408497,0.3474799999999999
1,Wrist,9,1,No Fall,-0.4053336201680678,0.3386279753027738,0.895724,-0.4053336201680678,0.3386279753027738,0.895724,-0.4053336201680678,0.3386279753027738,0.895724,-0.07369117647058734,11.0608262672854,106.89000000000001,-0.07369117647058734,11.0608262672854,106.89000000000001,-0.07369117647058734,11.0608262672854,106.89000000000001,0.9537799249999991,0.05604613709633799,0.22273999999999994,0.9537799249999991,0.05604613709633799,0.22273999999999994,0.9537799249999991,0.05604613709633799,0.22273999999999994
1,Wrist,9,2,No Fall,-0.40953006134453923,0.3521569794250563,1.279048,-0.40953006134453923,0.3521569794250563,1.279048,-0.40953006134453923,0.3521569794250563,1.279048,0.22936764705882282,14.235309412937942,241.08,0.22936764705882282,14.235309412937942,241.08,0.22936764705882282,14.235309412937942,241.08,0.9546168625000001,0.04943075071100479,0.23659999999999992,0.9546168625000001,0.04943075071100479,0.23659999999999992,0.9546168625000001,0.04943075071100479,0.23659999999999992
1,Wrist,9,3,No Fall,-0.4121377344537824,0.33301425216098396,0.883524,-0.4121377344537824,0.33301425216098396,0.883524,-0.4121377344537824,0.33301425216098396,0.883524,0.31814705882352984,10.83565749877571,106.61000000000001,0.31814705882352984,10.83565749877571,106.61000000000001,0.31814705882352984,10.83565749877571,106.61000000000001,0.9370186000000008,0.07322934790718692,0.27803999999999995,0.9370186000000008,0.07322934790718692,0.27803999999999995,0.9370186000000008,0.07322934790718692,0.27803999999999995
1,Wrist,9,4,No Fall,-0.41744898907563055,0.33132101633521044,0.9516,-0.41744898907563055,0.33132101633521044,0.9516,-0.41744898907563055,0.33132101633521044,0.9516,0.09470588235294113,16.515523161976105,292.25,0.09470588235294113,16.515523161976105,292.25,0.09470588235294113,16.515523161976105,292.25,0.9367437625000008,0.06800926872485032,0.27859999999999985,0.9367437625000008,0.06800926872485032,0.27859999999999985,0.9367437625000008,0.06800926872485032,0.27859999999999985
1,Wrist,10,1,No Fall,-0.17621915798319307,0.181667518061693,0.97966,-0.17621915798319307,0.181667518061693,0.97966,-0.17621915798319307,0.181667518061693,0.97966,2.442073529411767,26.82205305953832,257.88000000000005,2.442073529411767,26.82205305953832,257.88000000000005,2.442073529411767,26.82205305953832,257.88000000000005,0.9601893874999995,0.057544837564557395,0.35196000000000005,0.9601893874999995,0.057544837564557395,0.35196000000000005,0.9601893874999995,0.057544837564557395,0.35196000000000005
1,Wrist,10,2,No Fall,-0.13321692605042026,0.10383921959025527,1.097268,-0.13321692605042026,0.10383921959025527,1.097268,-0.13321692605042026,0.10383921959025527,1.097268,2.3369558823529513,20.49633890089016,276.43000000000006,2.3369558823529513,20.49633890089016,276.43000000000006,2.3369558823529513,20.49633890089016,276.43000000000006,0.9910547500000007,0.04186649505353345,0.31248,0.9910547500000007,0.04186649505353345,0.31248,0.9910547500000007,0.04186649505353345,0.31248
1,Wrist,11,1,No Fall,-0.1429119277310926,0.06032060438063789,0.497516,-0.1429119277310926,0.06032060438063789,0.497516,-0.1429119277310926,0.06032060438063789,0.497516,0.3781911764705842,9.803065131320267,84.14000000000001,0.3781911764705842,9.803065131320267,84.14000000000001,0.3781911764705842,9.803065131320267,84.14000000000001,0.8936671624999996,0.1770465475078204,0.5635000000000001,0.8936671624999996,0.1770465475078204,0.5635000000000001,0.8936671624999996,0.1770465475078204,0.5635000000000001
1,Wrist,11,2,No Fall,-0.0997128042016805,0.07209934424316555,0.876692,-0.0997128042016805,0.07209934424316555,0.876692,-0.0997128042016805,0.07209934424316555,0.876692,0.428132352941172,13.191507815262682,148.68,0.428132352941172,13.191507815262682,148.68,0.428132352941172,13.191507815262682,148.68,0.9568700749999992,0.14955094669051547,0.6393799999999998,0.9568700749999992,0.14955094669051547,0.6393799999999998,0.9568700749999992,0.14955094669051547,0.6393799999999998
1,Wrist,11,3,No Fall,-0.15947255630252072,0.06161115422436043,0.4087,-0.15947255630252072,0.06161115422436043,0.4087,-0.15947255630252072,0.06161115422436043,0.4087,0.6747941176470637,9.983307732607141,100.73,0.6747941176470637,9.983307732607141,100.73,0.6747941176470637,9.983307732607141,100.73,0.9142099750000007,0.17434436212529908,0.58128,0.9142099750000007,0.17434436212529908,0.58128,0.9142099750000007,0.17434436212529908,0.58128
1,Wrist,11,4,No Fall,-0.12203952184873967,0.07996542486047975,0.751764,-0.12203952184873967,0.07996542486047975,0.751764,-0.12203952184873967,0.07996542486047975,0.751764,0.16825000000000004,15.333257011012693,149.45,0.16825000000000004,15.333257011012693,149.45,0.16825000000000004,15.333257011012693,149.45,0.8998201624999996,0.19459459853329694,0.6075999999999999,0.8998201624999996,0.19459459853329694,0.6075999999999999,0.8998201624999996,0.19459459853329694,0.6075999999999999
1,Wrist,12,1,No Fall,-0.09146468151260542,0.07393932671414608,3.335724,-0.09146468151260542,0.07393932671414608,3.335724,-0.09146468151260542,0.07393932671414608,3.335724,1.421147058823517,21.097269124631666,416.78000000000003,1.421147058823517,21.097269124631666,416.78000000000003,1.421147058823517,21.097269124631666,416.78000000000003,1.0167324999999985,0.009543426185841378,0.07209999999999994,1.0167324999999985,0.009543426185841378,0.07209999999999994,1.0167324999999985,0.009543426185841378,0.07209999999999994
1,Wrist,12,2,No Fall,-0.10858640756302519,0.07405884501652196,2.24236,-0.10858640756302519,0.07405884501652196,2.24236,-0.10858640756302519,0.07405884501652196,2.24236,1.318161764705877,20.230611096669847,320.6,1.318161764705877,20.230611096669847,320.6,1.318161764705877,20.230611096669847,320.6,1.0104193749999995,0.009527783675807457,0.0826,1.0104193749999995,0.009527783675807457,0.0826,1.0104193749999995,0.009527783675807457,0.0826
1,Wrist,12,3,No Fall,-0.10342216806722707,0.06398791552756498,0.8874279999999999,-0.10342216806722707,0.06398791552756498,0.8874279999999999,-0.10342216806722707,0.06398791552756498,0.8874279999999999,1.3942941176470567,18.713638879351983,259.91,1.3942941176470567,18.713638879351983,259.91,1.3942941176470567,18.713638879351983,259.91,1.0119056500000019,0.009568376728748962,0.08413999999999988,1.0119056500000019,0.009568376728748962,0.08413999999999988,1.0119056500000019,0.009568376728748962,0.08413999999999988
1,Wrist,12,4,No Fall,-0.1180045000000003,0.08170986397094077,2.6720439999999996,-0.1180045000000003,0.08170986397094077,2.6720439999999996,-0.1180045000000003,0.08170986397094077,2.6720439999999996,1.374426470588222,35.18579282633062,583.94,1.374426470588222,35.18579282633062,583.94,1.374426470588222,35.18579282633062,583.94,1.0082749249999994,0.024661500699569038,0.2717400000000001,1.0082749249999994,0.024661500699569038,0.2717400000000001,1.0082749249999994,0.024661500699569038,0.2717400000000001
1,Wrist,13,1,No Fall,0.4405771134453799,0.4190235397632328,1.212924,0.4405771134453799,0.4190235397632328,1.212924,0.4405771134453799,0.4190235397632328,1.212924,2.410382352941186,22.611153470206425,140.28000000000003,2.410382352941186,22.611153470206425,140.28000000000003,2.410382352941186,22.611153470206425,140.28000000000003,0.9302294750000009,0.1369651281848268,0.43582,0.9302294750000009,0.1369651281848268,0.43582,0.9302294750000009,0.1369651281848268,0.43582
1,Wrist,13,2,No Fall,0.4994305798319337,0.3982750108203869,0.845948,0.4994305798319337,0.3982750108203869,0.845948,0.4994305798319337,0.3982750108203869,0.845948,3.8980588235294205,10.493937777721541,95.2,3.8980588235294205,10.493937777721541,95.2,3.8980588235294205,10.493937777721541,95.2,0.8175887124999994,0.21084408557416529,0.4808999999999999,0.8175887124999994,0.21084408557416529,0.4808999999999999,0.8175887124999994,0.21084408557416529,0.4808999999999999
1,Wrist,13,3,No Fall,0.6322705873949565,0.27054686692016866,0.900604,0.6322705873949565,0.27054686692016866,0.900604,0.6322705873949565,0.27054686692016866,0.900604,3.683161764705889,23.626332476325818,157.92000000000002,3.683161764705889,23.626332476325818,157.92000000000002,3.683161764705889,23.626332476325818,157.92000000000002,0.9576335999999998,0.15051828197862255,0.50022,0.9576335999999998,0.15051828197862255,0.50022,0.9576335999999998,0.15051828197862255,0.50022
1,Wrist,13,4,No Fall,0.6253503168067222,0.2589945894062278,0.617076,0.6253503168067222,0.2589945894062278,0.617076,0.6253503168067222,0.2589945894062278,0.617076,2.9392058823529323,12.138781287115368,124.04,2.9392058823529323,12.138781287115368,124.04,2.9392058823529323,12.138781287115368,124.04,1.0264385250000003,0.045018163203431105,0.1351,1.0264385250000003,0.045018163203431105,0.1351,1.0264385250000003,0.045018163203431105,0.1351
1,Wrist,13,5,No Fall,0.43030896806723024,0.4487179800745499,1.379576,0.43030896806723024,0.4487179800745499,1.379576,0.43030896806723024,0.4487179800745499,1.379576,4.127749999999998,25.615353715214695,168.84000000000003,4.127749999999998,25.615353715214695,168.84000000000003,4.127749999999998,25.615353715214695,168.84000000000003,0.9180485124999999,0.12224132933836822,0.46031999999999995,0.9180485124999999,0.12224132933836822,0.46031999999999995,0.9180485124999999,0.12224132933836822,0.46031999999999995
1,Wrist,13,6,No Fall,0.4588534823529374,0.46905628588743614,1.029924,0.4588534823529374,0.46905628588743614,1.029924,0.4588534823529374,0.46905628588743614,1.029924,4.3209852941176505,12.041524581309154,91.0,4.3209852941176505,12.041524581309154,91.0,4.3209852941176505,12.041524581309154,91.0,0.7961954874999981,0.20593413120311987,0.47782,0.7961954874999981,0.20593413120311987,0.47782,0.7961954874999981,0.20593413120311987,0.47782
1,Wrist,13,7,No Fall,0.6096080621848732,0.30542168795011543,1.1216679999999999,0.6096080621848732,0.30542168795011543,1.1216679999999999,0.6096080621848732,0.30542168795011543,1.1216679999999999,4.719470588235273,25.858762455447046,177.94000000000003,4.719470588235273,25.858762455447046,177.94000000000003,4.719470588235273,25.858762455447046,177.94000000000003,0.9542344874999997,0.13327775678313902,0.47361999999999993,0.9542344874999997,0.13327775678313902,0.47361999999999993,0.9542344874999997,0.13327775678313902,0.47361999999999993
1,Wrist,13,8,No Fall,0.5673030243697472,0.314254993086024,0.762988,0.5673030243697472,0.314254993086024,0.762988,0.5673030243697472,0.314254993086024,0.762988,3.328808823529413,11.817130521605513,108.64,3.328808823529413,11.817130521605513,108.64,3.328808823529413,11.817130521605513,108.64,1.0225246500000011,0.03313574149208291,0.11578,1.0225246500000011,0.03313574149208291,0.11578,1.0225246500000011,0.03313574149208291,0.11578
1,Wrist,13,9,No Fall,0.4079850697478982,0.44140506903736176,1.403,0.4079850697478982,0.44140506903736176,1.403,0.4079850697478982,0.44140506903736176,1.403,3.2068529411764835,24.383740549922404,170.66000000000003,3.2068529411764835,24.383740549922404,170.66000000000003,3.2068529411764835,24.383740549922404,170.66000000000003,0.9370572749999986,0.12496818979188962,0.45220000000000005,0.9370572749999986,0.12496818979188962,0.45220000000000005,0.9370572749999986,0.12496818979188962,0.45220000000000005
1,Wrist,13,10,No Fall,0.40261737731092573,0.4791552984427171,1.05896,0.40261737731092573,0.4791552984427171,1.05896,0.40261737731092573,0.4791552984427171,1.05896,4.055838235294133,11.699073375764968,92.33,4.055838235294133,11.699073375764968,92.33,4.055838235294133,11.699073375764968,92.33,0.8269205874999994,0.21651066995250348,0.49252000000000007,0.8269205874999994,0.21651066995250348,0.49252000000000007,0.8269205874999994,0.21651066995250348,0.49252000000000007
1,Wrist,13,11,No Fall,0.5526902949579852,0.3634056224059684,1.1216679999999999,0.5526902949579852,0.3634056224059684,1.1216679999999999,0.5526902949579852,0.3634056224059684,1.1216679999999999,4.781544117647036,27.11790388790278,184.66000000000003,4.781544117647036,27.11790388790278,184.66000000000003,4.781544117647036,27.11790388790278,184.66000000000003,0.9417910250000021,0.13113467036240348,0.4464600000000001,0.9417910250000021,0.13113467036240348,0.4464600000000001,0.9417910250000021,0.13113467036240348,0.4464600000000001
1,Wrist,13,12,No Fall,0.5655183386554634,0.3754781921470528,2.552972,0.5655183386554634,0.3754781921470528,2.552972,0.5655183386554634,0.3754781921470528,2.552972,6.10741176470589,28.807101603917687,420.4200000000001,6.10741176470589,28.807101603917687,420.4200000000001,6.10741176470589,28.807101603917687,420.4200000000001,0.9444521625,0.09425355700955916,0.30576000000000003,0.9444521625,0.09425355700955916,0.30576000000000003,0.9444521625,0.09425355700955916,0.30576000000000003
1,Wrist,14,1,No Fall,0.4801545285714292,0.42885839172120854,1.442772,0.4801545285714292,0.42885839172120854,1.442772,0.4801545285714292,0.42885839172120854,1.442772,1.0102058823529376,26.969778462666834,182.42000000000002,1.0102058823529376,26.969778462666834,182.42000000000002,1.0102058823529376,26.969778462666834,182.42000000000002,0.8845828249999984,0.17171670564156574,0.56028,0.8845828249999984,0.17171670564156574,0.56028,0.8845828249999984,0.17171670564156574,0.56028
1,Wrist,14,2,No Fall,0.4138303563025203,0.3912097193684573,1.1382599999999998,0.4138303563025203,0.3912097193684573,1.1382599999999998,0.4138303563025203,0.3912097193684573,1.1382599999999998,-0.7042647058823525,13.323126178159745,139.65,-0.7042647058823525,13.323126178159745,139.65,-0.7042647058823525,13.323126178159745,139.65,0.8334231500000004,0.18671812725464276,0.4788,0.8334231500000004,0.18671812725464276,0.4788,0.8334231500000004,0.18671812725464276,0.4788
1,Wrist,14,3,No Fall,0.6478814100840338,0.2722736575326788,0.8927959999999999,0.6478814100840338,0.2722736575326788,0.8927959999999999,0.6478814100840338,0.2722736575326788,0.8927959999999999,4.014205882352942,20.895693726353674,130.62,4.014205882352942,20.895693726353674,130.62,4.014205882352942,20.895693726353674,130.62,0.9289866250000012,0.17054888455329562,0.56784,0.9289866250000012,0.17054888455329562,0.56784,0.9289866250000012,0.17054888455329562,0.56784
1,Wrist,14,4,No Fall,0.5724297924369756,0.22884441051869928,0.661972,0.5724297924369756,0.22884441051869928,0.661972,0.5724297924369756,0.22884441051869928,0.661972,-0.37408823529411916,17.894529698117804,158.55,-0.37408823529411916,17.894529698117804,158.55,-0.37408823529411916,17.894529698117804,158.55,1.0477820499999995,0.036071195367731256,0.19782,1.0477820499999995,0.036071195367731256,0.19782,1.0477820499999995,0.036071195367731256,0.19782
1,Wrist,14,5,No Fall,0.4317099689075633,0.4675197248652301,1.602104,0.4317099689075633,0.4675197248652301,1.602104,0.4317099689075633,0.4675197248652301,1.602104,0.7304999999999906,31.826471360527105,211.75000000000003,0.7304999999999906,31.826471360527105,211.75000000000003,0.7304999999999906,31.826471360527105,211.75000000000003,0.9072048999999995,0.14959543232113437,0.54362,0.9072048999999995,0.14959543232113437,0.54362,0.9072048999999995,0.14959543232113437,0.54362
1,Wrist,14,6,No Fall,0.35237967394957986,0.5033190826091715,1.37372,0.35237967394957986,0.5033190826091715,1.37372,0.35237967394957986,0.5033190826091715,1.37372,-1.547926470588235,15.594745838224767,146.65000000000003,-1.547926470588235,15.594745838224767,146.65000000000003,-1.547926470588235,15.594745838224767,146.65000000000003,0.8315783875,0.19608243666218406,0.48958,0.8315783875,0.19608243666218406,0.48958,0.8315783875,0.19608243666218406,0.48958
1,Wrist,14,7,No Fall,0.6062727974789905,0.306915435165499,1.019676,0.6062727974789905,0.306915435165499,1.019676,0.6062727974789905,0.306915435165499,1.019676,4.686911764705875,28.821351932416654,193.48000000000002,4.686911764705875,28.821351932416654,193.48000000000002,4.686911764705875,28.821351932416654,193.48000000000002,0.9341269000000005,0.1597920942936923,0.57596,0.9341269000000005,0.1597920942936923,0.57596,0.9341269000000005,0.1597920942936923,0.57596
1,Wrist,14,8,No Fall,0.5548269865546216,0.31187902061328165,0.893528,0.5548269865546216,0.31187902061328165,0.893528,0.5548269865546216,0.31187902061328165,0.893528,-0.8708382352941202,18.074302038836787,171.29000000000002,-0.8708382352941202,18.074302038836787,171.29000000000002,-0.8708382352941202,18.074302038836787,171.29000000000002,1.0414526499999992,0.020157943450538236,0.11269999999999991,1.0414526499999992,0.020157943450538236,0.11269999999999991,1.0414526499999992,0.020157943450538236,0.11269999999999991
1,Wrist,14,9,No Fall,0.190159298319328,0.33824148967582024,1.46034,0.190159298319328,0.33824148967582024,1.46034,0.190159298319328,0.33824148967582024,1.46034,0.6508088235294077,20.730555927470785,156.73000000000002,0.6508088235294077,20.730555927470785,156.73000000000002,0.6508088235294077,20.730555927470785,156.73000000000002,0.9312823624999993,0.13083974153098904,0.49224,0.9312823624999993,0.13083974153098904,0.49224,0.9312823624999993,0.13083974153098904,0.49224
1,Wrist,14,10,No Fall,0.3253629277310919,0.5093400205649318,1.7458200000000001,0.3253629277310919,0.5093400205649318,1.7458200000000001,0.3253629277310919,0.5093400205649318,1.7458200000000001,-1.2713235294117609,19.07755707634527,173.18,-1.2713235294117609,19.07755707634527,173.18,-1.2713235294117609,19.07755707634527,173.18,0.8607181625000001,0.20459005952552764,0.49195999999999984,0.8607181625000001,0.20459005952552764,0.49195999999999984,0.8607181625000001,0.20459005952552764,0.49195999999999984
1,Wrist,14,11,No Fall,0.5549355050420169,0.3752788277453377,1.2605039999999998,0.5549355050420169,0.3752788277453377,1.2605039999999998,0.5549355050420169,0.3752788277453377,1.2605039999999998,4.318764705882345,24.52258496623982,172.83,4.318764705882345,24.52258496623982,172.83,4.318764705882345,24.52258496623982,172.83,0.9302840750000003,0.14902047846108202,0.58002,0.9302840750000003,0.14902047846108202,0.58002,0.9302840750000003,0.14902047846108202,0.58002
1,Wrist,14,12,No Fall,0.5047779218487385,0.3742424145281949,0.8544879999999999,0.5047779218487385,0.3742424145281949,0.8544879999999999,0.5047779218487385,0.3742424145281949,0.8544879999999999,-1.2376029411764748,13.773917100763665,139.72000000000003,-1.2376029411764748,13.773917100763665,139.72000000000003,-1.2376029411764748,13.773917100763665,139.72000000000003,1.0246487125000006,0.01702668012972563,0.11704000000000003,1.0246487125000006,0.01702668012972563,0.11704000000000003,1.0246487125000006,0.01702668012972563,0.11704000000000003
1,Wrist,15,1,No Fall,0.08346660756302547,0.17033006545704754,1.279048,0.08346660756302547,0.17033006545704754,1.279048,0.08346660756302547,0.17033006545704754,1.279048,2.213617647058819,22.629459812802956,244.58,2.213617647058819,22.629459812802956,244.58,2.213617647058819,22.629459812802956,244.58,1.0195716125,0.05014448193538044,0.4181799999999999,1.0195716125,0.05014448193538044,0.4181799999999999,1.0195716125,0.05014448193538044,0.4181799999999999
1,Wrist,15,2,No Fall,-0.09606813109243713,0.1368890408847173,1.3271160000000002,-0.09606813109243713,0.1368890408847173,1.3271160000000002,-0.09606813109243713,0.1368890408847173,1.3271160000000002,1.9434999999999931,23.735115622515877,288.33000000000004,1.9434999999999931,23.735115622515877,288.33000000000004,1.9434999999999931,23.735115622515877,288.33000000000004,1.0147890375,0.031427991866233775,0.2868600000000001,1.0147890375,0.031427991866233775,0.2868600000000001,1.0147890375,0.031427991866233775,0.2868600000000001
1,Wrist,15,3,No Fall,-0.11074724285714317,0.11972945071110494,1.778028,-0.11074724285714317,0.11972945071110494,1.778028,-0.11074724285714317,0.11972945071110494,1.778028,1.200955882352941,12.088400353386229,209.65000000000003,1.200955882352941,12.088400353386229,209.65000000000003,1.200955882352941,12.088400353386229,209.65000000000003,1.0404575124999997,0.014954159182661596,0.11396000000000006,1.0404575124999997,0.014954159182661596,0.11396000000000006,1.0404575124999997,0.014954159182661596,0.11396000000000006
1,Wrist,16,1,No Fall,0.2440800689075629,0.6123530430282117,2.032764,0.2440800689075629,0.6123530430282117,2.032764,0.2440800689075629,0.6123530430282117,2.032764,7.353573529412146,27.33744069236918,160.72000000000003,7.353573529412146,27.33744069236918,160.72000000000003,7.353573529412146,27.33744069236918,160.72000000000003,0.5640011999999992,0.2080585441520766,0.6420399999999999,0.5640011999999992,0.2080585441520766,0.6420399999999999,0.5640011999999992,0.2080585441520766,0.6420399999999999
1,Wrist,16,2,No Fall,0.27046815630252213,0.5601789532389698,2.0962039999999997,0.27046815630252213,0.5601789532389698,2.0962039999999997,0.27046815630252213,0.5601789532389698,2.0962039999999997,4.723455882352986,20.146960918747855,192.99,4.723455882352986,20.146960918747855,192.99,4.723455882352986,20.146960918747855,192.99,0.7272510000000003,0.11090193360486703,0.42182,0.7272510000000003,0.11090193360486703,0.42182,0.7272510000000003,0.11090193360486703,0.42182
1,Wrist,16,3,No Fall,0.29577357058823606,0.5592619232100108,1.913204,0.29577357058823606,0.5592619232100108,1.913204,0.29577357058823606,0.5592619232100108,1.913204,3.7034852941176992,27.371546143412075,173.18,3.7034852941176992,27.371546143412075,173.18,3.7034852941176992,27.371546143412075,173.18,0.801029687500002,0.089675162135858,0.4090799999999999,0.801029687500002,0.089675162135858,0.4090799999999999,0.801029687500002,0.089675162135858,0.4090799999999999
1,Wrist,16,4,No Fall,0.395888052100839,0.38802009823803185,1.297836,0.395888052100839,0.38802009823803185,1.297836,0.395888052100839,0.38802009823803185,1.297836,7.097294117647284,17.899234076664918,138.88000000000002,7.097294117647284,17.899234076664918,138.88000000000002,7.097294117647284,17.899234076664918,138.88000000000002,0.9090976125000008,0.03872899701200397,0.25493999999999994,0.9090976125000008,0.03872899701200397,0.25493999999999994,0.9090976125000008,0.03872899701200397,0.25493999999999994
1,Wrist,16,5,No Fall,0.6450095403361358,0.2915716296920362,1.48596,0.6450095403361358,0.2915716296920362,1.48596,0.6450095403361358,0.2915716296920362,1.48596,6.835970588235304,23.436280596241037,164.15000000000003,6.835970588235304,23.436280596241037,164.15000000000003,6.835970588235304,23.436280596241037,164.15000000000003,0.8870934624999974,0.0606734665605683,0.3313799999999999,0.8870934624999974,0.0606734665605683,0.3313799999999999,0.8870934624999974,0.0606734665605683,0.3313799999999999
1,Wrist,16,6,No Fall,0.7668271042016794,0.1369708171572587,0.9372039999999999,0.7668271042016794,0.1369708171572587,0.9372039999999999,0.7668271042016794,0.1369708171572587,0.9372039999999999,1.365499999999995,17.098926584941623,215.11,1.365499999999995,17.098926584941623,215.11,1.365499999999995,17.098926584941623,215.11,0.9580908749999992,0.09013667968909926,0.41174,0.9580908749999992,0.09013667968909926,0.41174,0.9580908749999992,0.09013667968909926,0.41174
1,Wrist,17,1,No Fall,0.026057867226891216,0.5353270210607849,2.568832,0.026057867226891216,0.5353270210607849,2.568832,0.026057867226891216,0.5353270210607849,2.568832,-2.93357352941176,25.81609388360429,273.0,-2.93357352941176,25.81609388360429,273.0,-2.93357352941176,25.81609388360429,273.0,0.5595457875000005,0.20592947121454364,0.5278,0.5595457875000005,0.20592947121454364,0.5278,0.5595457875000005,0.20592947121454364,0.5278
1,Wrist,17,2,No Fall,0.15302844453781558,0.4520412163960205,1.990552,0.15302844453781558,0.4520412163960205,1.990552,0.15302844453781558,0.4520412163960205,1.990552,1.3473529411764649,11.469053973336173,131.88,1.3473529411764649,11.469053973336173,131.88,1.3473529411764649,11.469053973336173,131.88,0.7826168874999988,0.13409513012975224,0.41090000000000004,0.7826168874999988,0.13409513012975224,0.41090000000000004,0.7826168874999988,0.13409513012975224,0.41090000000000004
1,Wrist,17,3,No Fall,0.1374409453781508,0.47026991997108475,1.719224,0.1374409453781508,0.47026991997108475,1.719224,0.1374409453781508,0.47026991997108475,1.719224,3.0161470588235333,6.7856569085083365,47.040000000000006,3.0161470588235333,6.7856569085083365,47.040000000000006,3.0161470588235333,6.7856569085083365,47.040000000000006,0.7516222874999984,0.030412323964520063,0.24065999999999999,0.7516222874999984,0.030412323964520063,0.24065999999999999,0.7516222874999984,0.030412323964520063,0.24065999999999999
1,Wrist,17,4,No Fall,-0.10058341260504189,0.27447184015471987,1.3620079999999999,-0.10058341260504189,0.27447184015471987,1.3620079999999999,-0.10058341260504189,0.27447184015471987,1.3620079999999999,8.617602941176909,26.58661303112553,262.29,8.617602941176909,26.58661303112553,262.29,8.617602941176909,26.58661303112553,262.29,0.6067406625000007,0.3213702267291628,0.72464,0.6067406625000007,0.3213702267291628,0.72464,0.6067406625000007,0.3213702267291628,0.72464
1,Wrist,17,5,No Fall,0.07211835210083992,0.4962393515437236,1.836344,0.07211835210083992,0.4962393515437236,1.836344,0.07211835210083992,0.4962393515437236,1.836344,8.881235294118058,35.908879210055915,346.2900000000001,8.881235294118058,35.908879210055915,346.2900000000001,8.881235294118058,35.908879210055915,346.2900000000001,0.5254295375,0.33053613489765626,0.80304,0.5254295375,0.33053613489765626,0.80304,0.5254295375,0.33053613489765626,0.80304
1,Wrist,17,6,No Fall,0.07767919411764512,0.5242598768987058,2.2484599999999997,0.07767919411764512,0.5242598768987058,2.2484599999999997,0.07767919411764512,0.5242598768987058,2.2484599999999997,6.609382352941038,24.668051078642883,266.98,6.609382352941038,24.668051078642883,266.98,6.609382352941038,24.668051078642883,266.98,0.6159643874999994,0.35850940733607967,0.8850799999999999,0.6159643874999994,0.35850940733607967,0.8850799999999999,0.6159643874999994,0.35850940733607967,0.8850799999999999
1,Wrist,18,1,No Fall,0.7405338487394945,0.24662416656871142,1.646512,0.7405338487394945,0.24662416656871142,1.646512,0.7405338487394945,0.24662416656871142,1.646512,0.05691176470589109,33.0464439831152,266.63,0.05691176470589109,33.0464439831152,266.63,0.05691176470589109,33.0464439831152,266.63,0.7776273750000009,0.10581905401783802,0.57694,0.7776273750000009,0.10581905401783802,0.57694,0.7776273750000009,0.10581905401783802,0.57694
1,Wrist,18,2,No Fall,0.6884963890756332,0.3188570841080669,1.99348,0.6884963890756332,0.3188570841080669,1.99348,0.6884963890756332,0.3188570841080669,1.99348,-2.4792647058823603,34.495252298026884,318.29,-2.4792647058823603,34.495252298026884,318.29,-2.4792647058823603,34.495252298026884,318.29,0.7701155875000012,0.16332357220423913,0.7398999999999999,0.7701155875000012,0.16332357220423913,0.7398999999999999,0.7701155875000012,0.16332357220423913,0.7398999999999999
1,Wrist,18,3,No Fall,0.6042744067226887,0.35448839128079135,2.4187719999999997,0.6042744067226887,0.35448839128079135,2.4187719999999997,0.6042744067226887,0.35448839128079135,2.4187719999999997,-1.3453970588235356,37.477758516355934,282.94000000000005,-1.3453970588235356,37.477758516355934,282.94000000000005,-1.3453970588235356,37.477758516355934,282.94000000000005,0.7731467625000008,0.1277459690318878,0.6126399999999999,0.7731467625000008,0.1277459690318878,0.6126399999999999,0.7731467625000008,0.1277459690318878,0.6126399999999999
1,Wrist,18,4,No Fall,0.2863867470588225,0.5613342157115233,2.2326,0.2863867470588225,0.5613342157115233,2.2326,0.2863867470588225,0.5613342157115233,2.2326,-8.04373529411769,41.24379836419406,378.9100000000001,-8.04373529411769,41.24379836419406,378.9100000000001,-8.04373529411769,41.24379836419406,378.9100000000001,0.4780569500000006,0.24599624322435862,0.8728999999999999,0.4780569500000006,0.24599624322435862,0.8728999999999999,0.4780569500000006,0.24599624322435862,0.8728999999999999
1,Wrist,18,5,No Fall,0.34217170840336164,0.5928176248824747,2.138416,0.34217170840336164,0.5928176248824747,2.138416,0.34217170840336164,0.5928176248824747,2.138416,-5.233485294117668,44.58960000486697,379.82000000000005,-5.233485294117668,44.58960000486697,379.82000000000005,-5.233485294117668,44.58960000486697,379.82000000000005,0.5187452374999993,0.29565674613397164,0.8415400000000001,0.5187452374999993,0.29565674613397164,0.8415400000000001,0.5187452374999993,0.29565674613397164,0.8415400000000001
1,Wrist,18,6,No Fall,0.3546495915966393,0.5696065991341065,1.9024679999999998,0.3546495915966393,0.5696065991341065,1.9024679999999998,0.3546495915966393,0.5696065991341065,1.9024679999999998,-2.707794117647061,31.5879281145755,338.24,-2.707794117647061,31.5879281145755,338.24,-2.707794117647061,31.5879281145755,338.24,0.45204984999999986,0.1723723927927571,0.68292,0.45204984999999986,0.1723723927927571,0.68292,0.45204984999999986,0.1723723927927571,0.68292
1,Wrist,19,1,No Fall,0.4579628310924365,0.37066430389273314,1.4576559999999998,0.4579628310924365,0.37066430389273314,1.4576559999999998,0.4579628310924365,0.37066430389273314,1.4576559999999998,1.0254999999999992,26.010589108842403,213.29000000000002,1.0254999999999992,26.010589108842403,213.29000000000002,1.0254999999999992,26.010589108842403,213.29000000000002,0.4665467625000007,0.14013241446577807,0.50162,0.4665467625000007,0.14013241446577807,0.50162,0.4665467625000007,0.14013241446577807,0.50162
1,Wrist,19,2,No Fall,0.7303388008403352,0.09204601459360376,0.919392,0.7303388008403352,0.09204601459360376,0.919392,0.7303388008403352,0.09204601459360376,0.919392,0.7952500000000005,19.978568024548604,139.72,0.7952500000000005,19.978568024548604,139.72,0.7952500000000005,19.978568024548604,139.72,0.49800904999999995,0.0343535720492475,0.1995,0.49800904999999995,0.0343535720492475,0.1995,0.49800904999999995,0.0343535720492475,0.1995
1,Wrist,19,3,No Fall,0.6233740193277328,0.24980004866157596,1.3273599999999999,0.6233740193277328,0.24980004866157596,1.3273599999999999,0.6233740193277328,0.24980004866157596,1.3273599999999999,3.15229411764706,27.59113936566849,186.62,3.15229411764706,27.59113936566849,186.62,3.15229411764706,27.59113936566849,186.62,0.5008235750000006,0.03754401840564153,0.18451999999999996,0.5008235750000006,0.03754401840564153,0.18451999999999996,0.5008235750000006,0.03754401840564153,0.18451999999999996
1,Wrist,19,4,No Fall,0.7211781899159664,0.1247176280315548,0.929152,0.7211781899159664,0.1247176280315548,0.929152,0.7211781899159664,0.1247176280315548,0.929152,3.7908088235294026,28.963257019056567,215.81,3.7908088235294026,28.963257019056567,215.81,3.7908088235294026,28.963257019056567,215.81,0.7314853000000006,0.098601259259782,0.40361999999999987,0.7314853000000006,0.098601259259782,0.40361999999999987,0.7314853000000006,0.098601259259782,0.40361999999999987
1,Wrist,19,5,No Fall,0.6195443983193267,0.24841362716414422,1.285636,0.6195443983193267,0.24841362716414422,1.285636,0.6195443983193267,0.24841362716414422,1.285636,2.583132352941182,26.153991394306487,182.21000000000004,2.583132352941182,26.153991394306487,182.21000000000004,2.583132352941182,26.153991394306487,182.21000000000004,0.5166065625000013,0.03738644381385779,0.17163999999999996,0.5166065625000013,0.03738644381385779,0.17163999999999996,0.5166065625000013,0.03738644381385779,0.17163999999999996
1,Wrist,19,6,No Fall,0.7305871579831936,0.13649499393712122,1.1406999999999998,0.7305871579831936,0.13649499393712122,1.1406999999999998,0.7305871579831936,0.13649499393712122,1.1406999999999998,6.288000000000001,29.64204497061437,187.60000000000002,6.288000000000001,29.64204497061437,187.60000000000002,6.288000000000001,29.64204497061437,187.60000000000002,0.9308249999999988,0.1362952740581331,0.5803,0.9308249999999988,0.1362952740581331,0.5803,0.9308249999999988,0.1362952740581331,0.5803
1,Wrist,20,1,No Fall,0.7447317252100838,0.08996509107727431,0.519476,0.7447317252100838,0.08996509107727431,0.519476,0.7447317252100838,0.08996509107727431,0.519476,2.367029411764706,20.043424389871916,105.63000000000001,2.367029411764706,20.043424389871916,105.63000000000001,2.367029411764706,20.043424389871916,105.63000000000001,0.9752860250000001,0.01714673741056203,0.12809999999999988,0.9752860250000001,0.01714673741056203,0.12809999999999988,0.9752860250000001,0.01714673741056203,0.12809999999999988
1,Wrist,20,2,No Fall,0.7517923470588231,0.13578150763162855,0.9125599999999998,0.7517923470588231,0.13578150763162855,0.9125599999999998,0.7517923470588231,0.13578150763162855,0.9125599999999998,6.6969264705882345,32.63170832130701,171.85000000000002,6.6969264705882345,32.63170832130701,171.85000000000002,6.6969264705882345,32.63170832130701,171.85000000000002,0.9792634250000014,0.06208687075758986,0.4106199999999999,0.9792634250000014,0.06208687075758986,0.4106199999999999,0.9792634250000014,0.06208687075758986,0.4106199999999999
1,Wrist,20,3,No Fall,0.744648683193277,0.12241298816476655,0.828136,0.744648683193277,0.12241298816476655,0.828136,0.744648683193277,0.12241298816476655,0.828136,4.956397058823544,33.415170951191094,159.95000000000002,4.956397058823544,33.415170951191094,159.95000000000002,4.956397058823544,33.415170951191094,159.95000000000002,0.9507953874999991,0.0554602128961285,0.31933999999999996,0.9507953874999991,0.0554602128961285,0.31933999999999996,0.9507953874999991,0.0554602128961285,0.31933999999999996
1,Wrist,20,4,No Fall,0.7337631050420194,0.1703155987288579,0.950868,0.7337631050420194,0.1703155987288579,0.950868,0.7337631050420194,0.1703155987288579,0.950868,5.269838235294116,36.20138024815196,215.81,5.269838235294116,36.20138024815196,215.81,5.269838235294116,36.20138024815196,215.81,0.5665501625000006,0.05743933151575413,0.30366,0.5665501625000006,0.05743933151575413,0.30366,0.5665501625000006,0.05743933151575413,0.30366
1,Wrist,20,5,No Fall,0.7475319327731115,0.13789824687544883,0.852536,0.7475319327731115,0.13789824687544883,0.852536,0.7475319327731115,0.13789824687544883,0.852536,7.272014705882353,34.547249420547594,166.04000000000002,7.272014705882353,34.547249420547594,166.04000000000002,7.272014705882353,34.547249420547594,166.04000000000002,0.9012682874999995,0.1635069591749202,0.5622399999999999,0.9012682874999995,0.1635069591749202,0.5622399999999999,0.9012682874999995,0.1635069591749202,0.5622399999999999
1,Wrist,20,6,No Fall,0.7397441294117658,0.17636514966250813,0.964288,0.7397441294117658,0.17636514966250813,0.964288,0.7397441294117658,0.17636514966250813,0.964288,3.2861323529411797,34.815183943366186,185.22000000000003,3.2861323529411797,34.815183943366186,185.22000000000003,3.2861323529411797,34.815183943366186,185.22000000000003,0.558588275,0.053359827089218,0.21658,0.558588275,0.053359827089218,0.21658,0.558588275,0.053359827089218,0.21658
1,Wrist,21,1,No Fall,0.7336487941176476,0.05920621550804478,0.5333840000000001,0.7336487941176476,0.05920621550804478,0.5333840000000001,0.7336487941176476,0.05920621550804478,0.5333840000000001,6.336147058823534,18.70872615106759,118.86000000000001,6.336147058823534,18.70872615106759,118.86000000000001,6.336147058823534,18.70872615106759,118.86000000000001,0.6118842624999994,0.18707063605327515,0.58212,0.6118842624999994,0.18707063605327515,0.58212,0.6118842624999994,0.18707063605327515,0.58212
1,Wrist,21,2,No Fall,0.7340003386554602,0.0937344980326894,0.9125599999999998,0.7340003386554602,0.0937344980326894,0.9125599999999998,0.7340003386554602,0.0937344980326894,0.9125599999999998,7.461308823529336,25.2871830048642,177.38,7.461308823529336,25.2871830048642,177.38,7.461308823529336,25.2871830048642,177.38,0.6642761125000005,0.2151034459368812,0.59556,0.6642761125000005,0.2151034459368812,0.59556,0.6642761125000005,0.2151034459368812,0.59556
1,Wrist,21,3,No Fall,0.7208710882352939,0.08927892791537498,0.6751479999999999,0.7208710882352939,0.08927892791537498,0.6751479999999999,0.7208710882352939,0.08927892791537498,0.6751479999999999,5.268000000000016,23.312156338481913,137.97000000000003,5.268000000000016,23.312156338481913,137.97000000000003,5.268000000000016,23.312156338481913,137.97000000000003,0.8985651499999985,0.09811681140815297,0.27369999999999983,0.8985651499999985,0.09811681140815297,0.27369999999999983,0.8985651499999985,0.09811681140815297,0.27369999999999983
1,Wrist,21,4,No Fall,0.6107421495798334,0.2290333739928888,1.12606,0.6107421495798334,0.2290333739928888,1.12606,0.6107421495798334,0.2290333739928888,1.12606,2.0139705882352925,22.10231363808575,148.47000000000003,2.0139705882352925,22.10231363808575,148.47000000000003,2.0139705882352925,22.10231363808575,148.47000000000003,0.9920383374999995,0.016784961865509557,0.09645999999999999,0.9920383374999995,0.016784961865509557,0.09645999999999999,0.9920383374999995,0.016784961865509557,0.09645999999999999
1,Wrist,21,5,No Fall,0.7259754554621818,0.1004850270289621,0.8427760000000001,0.7259754554621818,0.1004850270289621,0.8427760000000001,0.7259754554621818,0.1004850270289621,0.8427760000000001,1.8740000000000023,23.7707629560985,133.35000000000002,1.8740000000000023,23.7707629560985,133.35000000000002,1.8740000000000023,23.7707629560985,133.35000000000002,1.0013102750000014,0.012229210089433715,0.08777999999999997,1.0013102750000014,0.012229210089433715,0.08777999999999997,1.0013102750000014,0.012229210089433715,0.08777999999999997
1,Wrist,21,6,No Fall,0.7328210394957958,0.1266055331037056,0.918172,0.7328210394957958,0.1266055331037056,0.918172,0.7328210394957958,0.1266055331037056,0.918172,6.106250000000006,32.96322364328222,204.26000000000002,6.106250000000006,32.96322364328222,204.26000000000002,6.106250000000006,32.96322364328222,204.26000000000002,0.9411636499999974,0.115112887265878,0.5282199999999999,0.9411636499999974,0.115112887265878,0.5282199999999999,0.9411636499999974,0.115112887265878,0.5282199999999999
1,Wrist,22,1,No Fall,0.7657241319327691,0.1893363241417604,0.96502,0.7657241319327691,0.1893363241417604,0.96502,0.7657241319327691,0.1893363241417604,0.96502,11.884058823529404,67.6963070423988,296.59000000000003,11.884058823529404,67.6963070423988,296.59000000000003,11.884058823529404,67.6963070423988,296.59000000000003,0.949713974999999,0.14687410431649825,0.5622399999999999,0.949713974999999,0.14687410431649825,0.5622399999999999,0.949713974999999,0.14687410431649825,0.5622399999999999
1,Wrist,22,2,No Fall,0.7655855747899143,0.20789204867074032,1.1009280000000001,0.7655855747899143,0.20789204867074032,1.1009280000000001,0.7655855747899143,0.20789204867074032,1.1009280000000001,8.61422058823529,65.4245287679714,245.98000000000002,8.61422058823529,65.4245287679714,245.98000000000002,8.61422058823529,65.4245287679714,245.98000000000002,0.7628669999999989,0.2005612905511487,0.5609799999999999,0.7628669999999989,0.2005612905511487,0.5609799999999999,0.7628669999999989,0.2005612905511487,0.5609799999999999
1,Wrist,22,3,No Fall,0.7259649983193266,0.28567869329326034,1.562576,0.7259649983193266,0.28567869329326034,1.562576,0.7259649983193266,0.28567869329326034,1.562576,9.677544117647043,61.89910535362077,249.20000000000005,9.677544117647043,61.89910535362077,249.20000000000005,9.677544117647043,61.89910535362077,249.20000000000005,0.7581028874999985,0.18308277462637038,0.55384,0.7581028874999985,0.18308277462637038,0.55384,0.7581028874999985,0.18308277462637038,0.55384
1,Wrist,23,1,No Fall,0.7125512521008392,0.2623855036682035,2.723284,0.7125512521008392,0.2623855036682035,2.723284,0.7125512521008392,0.2623855036682035,2.723284,4.9966911764705735,53.1952393532341,361.62,4.9966911764705735,53.1952393532341,361.62,4.9966911764705735,53.1952393532341,361.62,0.9738946000000004,0.07298957119533962,0.37422,0.9738946000000004,0.07298957119533962,0.37422,0.9738946000000004,0.07298957119533962,0.37422
1,Wrist,23,2,No Fall,0.7521861815126043,0.2371492240438906,3.1820039999999996,0.7521861815126043,0.2371492240438906,3.1820039999999996,0.7521861815126043,0.2371492240438906,3.1820039999999996,4.345279411764695,42.86533582643931,305.90000000000003,4.345279411764695,42.86533582643931,305.90000000000003,4.345279411764695,42.86533582643931,305.90000000000003,0.5691707875000002,0.04656973238987031,0.2591399999999999,0.5691707875000002,0.04656973238987031,0.2591399999999999,0.5691707875000002,0.04656973238987031,0.2591399999999999
1,Wrist,23,3,No Fall,0.7689904000000032,0.23012431106938983,2.250412,0.7689904000000032,0.23012431106938983,2.250412,0.7689904000000032,0.23012431106938983,2.250412,8.448558823529423,47.31994981769108,272.72,8.448558823529423,47.31994981769108,272.72,8.448558823529423,47.31994981769108,272.72,0.900837875000001,0.17083011448071084,0.5791799999999999,0.900837875000001,0.17083011448071084,0.5791799999999999,0.900837875000001,0.17083011448071084,0.5791799999999999
1,Wrist,24,1,No Fall,-0.18139810924369817,0.4430898454830201,1.625772,-0.18139810924369817,0.4430898454830201,1.625772,-0.18139810924369817,0.4430898454830201,1.625772,20.658955882352913,119.60482727043318,447.30000000000007,20.658955882352913,119.60482727043318,447.30000000000007,20.658955882352913,119.60482727043318,447.30000000000007,0.7359572500000005,0.17955594993597662,0.6386799999999999,0.7359572500000005,0.17955594993597662,0.6386799999999999,0.7359572500000005,0.17955594993597662,0.6386799999999999
1,Wrist,24,2,No Fall,-0.14855350504201667,0.45324541246122935,1.702632,-0.14855350504201667,0.45324541246122935,1.702632,-0.14855350504201667,0.45324541246122935,1.702632,18.829749999999986,111.25182711183832,424.83000000000004,18.829749999999986,111.25182711183832,424.83000000000004,18.829749999999986,111.25182711183832,424.83000000000004,0.5959914625,0.18107747326887336,0.6171199999999999,0.5959914625,0.18107747326887336,0.6171199999999999,0.5959914625,0.18107747326887336,0.6171199999999999
1,Wrist,24,3,No Fall,-0.07959326134453792,0.4597427595149403,1.607716,-0.07959326134453792,0.4597427595149403,1.607716,-0.07959326134453792,0.4597427595149403,1.607716,18.513897058823478,112.36175393366608,454.23,18.513897058823478,112.36175393366608,454.23,18.513897058823478,112.36175393366608,454.23,0.7967358000000004,0.1839677507137436,0.6278999999999999,0.7967358000000004,0.1839677507137436,0.6278999999999999,0.7967358000000004,0.1839677507137436,0.6278999999999999
1,Wrist,25,1,No Fall,-0.1667141789915968,0.5913505074927615,2.251144,-0.1667141789915968,0.5913505074927615,2.251144,-0.1667141789915968,0.5913505074927615,2.251144,21.63973529411762,141.9705412417381,534.45,21.63973529411762,141.9705412417381,534.45,21.63973529411762,141.9705412417381,534.45,0.6416142249999995,0.21553048175026562,0.6712999999999999,0.6416142249999995,0.21553048175026562,0.6712999999999999,0.6416142249999995,0.21553048175026562,0.6712999999999999
1,Wrist,25,2,No Fall,-0.13668910756302527,0.5778617990619466,2.2311360000000002,-0.13668910756302527,0.5778617990619466,2.2311360000000002,-0.13668910756302527,0.5778617990619466,2.2311360000000002,12.144205882352958,128.96954265871898,476.07000000000005,12.144205882352958,128.96954265871898,476.07000000000005,12.144205882352958,128.96954265871898,476.07000000000005,0.6985046250000003,0.22707029108140012,0.62216,0.6985046250000003,0.22707029108140012,0.62216,0.6985046250000003,0.22707029108140012,0.62216
1,Wrist,25,3,No Fall,-0.19361502521008442,0.5919701814160624,2.317512,-0.19361502521008442,0.5919701814160624,2.317512,-0.19361502521008442,0.5919701814160624,2.317512,16.929411764705897,130.51187784752872,473.62000000000006,16.929411764705897,130.51187784752872,473.62000000000006,16.929411764705897,130.51187784752872,473.62000000000006,0.6826323000000005,0.22182025514187076,0.6150199999999999,0.6826323000000005,0.22182025514187076,0.6150199999999999,0.6826323000000005,0.22182025514187076,0.6150199999999999
1,Wrist,26,1,No Fall,0.8722187008403355,0.1472980066839083,2.06424,0.8722187008403355,0.1472980066839083,2.06424,0.8722187008403355,0.1472980066839083,2.06424,1.5283235294117554,10.542150620143152,147.70000000000002,1.5283235294117554,10.542150620143152,147.70000000000002,1.5283235294117554,10.542150620143152,147.70000000000002,0.7699075125000006,0.035093168129184074,0.23673999999999995,0.7699075125000006,0.035093168129184074,0.23673999999999995,0.7699075125000006,0.035093168129184074,0.23673999999999995
1,Wrist,26,2,No Fall,0.9095264033613423,0.14820473823014052,1.762168,0.9095264033613423,0.14820473823014052,1.762168,0.9095264033613423,0.14820473823014052,1.762168,4.663808823529427,23.90049933866517,181.86,4.663808823529427,23.90049933866517,181.86,4.663808823529427,23.90049933866517,181.86,0.6713161874999991,0.12650450136361002,0.5131,0.6713161874999991,0.12650450136361002,0.5131,0.6713161874999991,0.12650450136361002,0.5131
1,Wrist,26,3,No Fall,0.7524733428571448,0.4498276314893367,3.263256,0.7524733428571448,0.4498276314893367,3.263256,0.7524733428571448,0.4498276314893367,3.263256,1.5691764705882454,29.444090513079452,350.21000000000004,1.5691764705882454,29.444090513079452,350.21000000000004,1.5691764705882454,29.444090513079452,350.21000000000004,0.5793892124999995,0.05075456522384713,0.4799199999999999,0.5793892124999995,0.05075456522384713,0.4799199999999999,0.5793892124999995,0.05075456522384713,0.4799199999999999
1,Wrist,26,4,No Fall,0.9187470403361362,0.16141578195814119,1.561112,0.9187470403361362,0.16141578195814119,1.561112,0.9187470403361362,0.16141578195814119,1.561112,9.488647058823547,25.85005704663651,162.75,9.488647058823547,25.85005704663651,162.75,9.488647058823547,25.85005704663651,162.75,0.7205547124999996,0.15268018904845598,0.6257999999999999,0.7205547124999996,0.15268018904845598,0.6257999999999999,0.7205547124999996,0.15268018904845598,0.6257999999999999
1,Wrist,27,1,No Fall,0.8693494453781522,0.1564964469556432,2.295308,0.8693494453781522,0.1564964469556432,2.295308,0.8693494453781522,0.1564964469556432,2.295308,1.4175147058823518,9.961543787642059,151.90000000000003,1.4175147058823518,9.961543787642059,151.90000000000003,1.4175147058823518,9.961543787642059,151.90000000000003,0.7429968875000005,0.029590428046199626,0.23099999999999998,0.7429968875000005,0.029590428046199626,0.23099999999999998,0.7429968875000005,0.029590428046199626,0.23099999999999998
1,Wrist,27,2,No Fall,0.9113498932773092,0.16740567839248174,2.2701759999999997,0.9113498932773092,0.16740567839248174,2.2701759999999997,0.9113498932773092,0.16740567839248174,2.2701759999999997,8.004720588235319,28.96682425578461,268.1,8.004720588235319,28.96682425578461,268.1,8.004720588235319,28.96682425578461,268.1,0.7385250249999994,0.13380358642647527,0.52976,0.7385250249999994,0.13380358642647527,0.52976,0.7385250249999994,0.13380358642647527,0.52976
1,Wrist,27,3,No Fall,0.8042980714285701,0.33865353597048065,3.080012,0.8042980714285701,0.33865353597048065,3.080012,0.8042980714285701,0.33865353597048065,3.080012,0.8635294117647033,32.611132822526386,383.81000000000006,0.8635294117647033,32.611132822526386,383.81000000000006,0.8635294117647033,32.611132822526386,383.81000000000006,0.6019720875,0.05418292841130275,0.39270000000000005,0.6019720875,0.05418292841130275,0.39270000000000005,0.6019720875,0.05418292841130275,0.39270000000000005
1,Wrist,27,4,No Fall,0.9097435428571405,0.22641810509274626,3.0517079999999996,0.9097435428571405,0.22641810509274626,3.0517079999999996,0.9097435428571405,0.22641810509274626,3.0517079999999996,-1.0977647058823516,31.342419552742705,231.63000000000002,-1.0977647058823516,31.342419552742705,231.63000000000002,-1.0977647058823516,31.342419552742705,231.63000000000002,0.7020056750000004,0.14888131400324028,0.6430199999999999,0.7020056750000004,0.14888131400324028,0.6430199999999999,0.7020056750000004,0.14888131400324028,0.6430199999999999
1,Wrist,28,1,No Fall,0.8543833773109254,0.12876137979991717,0.9467199999999999,0.8543833773109254,0.12876137979991717,0.9467199999999999,0.8543833773109254,0.12876137979991717,0.9467199999999999,1.1093382352941137,11.682936483530943,117.11000000000001,1.1093382352941137,11.682936483530943,117.11000000000001,1.1093382352941137,11.682936483530943,117.11000000000001,0.7324951375000005,0.0438932826269401,0.20845999999999998,0.7324951375000005,0.0438932826269401,0.20845999999999998,0.7324951375000005,0.0438932826269401,0.20845999999999998
1,Wrist,28,2,No Fall,0.915765268067229,0.1035559090102405,0.66978,0.915765268067229,0.1035559090102405,0.66978,0.915765268067229,0.1035559090102405,0.66978,2.8286029411764657,21.234714666254654,148.26,2.8286029411764657,21.234714666254654,148.26,2.8286029411764657,21.234714666254654,148.26,0.7081743375000005,0.1440573566984621,0.5153399999999999,0.7081743375000005,0.1440573566984621,0.5153399999999999,0.7081743375000005,0.1440573566984621,0.5153399999999999
1,Wrist,28,3,No Fall,0.8707394252100848,0.07484220737197138,0.48360800000000015,0.8707394252100848,0.07484220737197138,0.48360800000000015,0.8707394252100848,0.07484220737197138,0.48360800000000015,2.026044117647049,10.739148262434515,93.45000000000002,2.026044117647049,10.739148262434515,93.45000000000002,2.026044117647049,10.739148262434515,93.45000000000002,0.6291476624999999,0.06869985037055515,0.32186000000000003,0.6291476624999999,0.06869985037055515,0.32186000000000003,0.6291476624999999,0.06869985037055515,0.32186000000000003
1,Wrist,28,4,No Fall,0.9050202974789906,0.16600377386408036,1.0213839999999998,0.9050202974789906,0.16600377386408036,1.0213839999999998,0.9050202974789906,0.16600377386408036,1.0213839999999998,4.118955882352939,28.034459724913802,181.23000000000002,4.118955882352939,28.034459724913802,181.23000000000002,4.118955882352939,28.034459724913802,181.23000000000002,0.785003625000001,0.10459342861613216,0.47053999999999996,0.785003625000001,0.10459342861613216,0.47053999999999996,0.785003625000001,0.10459342861613216,0.47053999999999996
1,Wrist,29,1,No Fall,0.8763622924369749,0.1668053715797087,1.313452,0.8763622924369749,0.1668053715797087,1.313452,0.8763622924369749,0.1668053715797087,1.313452,-0.2904264705882363,24.971641287529287,221.48000000000002,-0.2904264705882363,24.971641287529287,221.48000000000002,-0.2904264705882363,24.971641287529287,221.48000000000002,1.0050481875000004,0.08451257434091344,0.44799999999999995,1.0050481875000004,0.08451257434091344,0.44799999999999995,1.0050481875000004,0.08451257434091344,0.44799999999999995
1,Wrist,29,2,No Fall,0.9376154680672274,0.15677012556319944,1.2734359999999998,0.9376154680672274,0.15677012556319944,1.2734359999999998,0.9376154680672274,0.15677012556319944,1.2734359999999998,1.52054411764706,29.91656204540673,154.28000000000003,1.52054411764706,29.91656204540673,154.28000000000003,1.52054411764706,29.91656204540673,154.28000000000003,1.0021029375000017,0.07528668629863937,0.47375999999999985,1.0021029375000017,0.07528668629863937,0.47375999999999985,1.0021029375000017,0.07528668629863937,0.47375999999999985
1,Wrist,30,1,No Fall,0.9422299386554622,0.16972087453615833,1.0079639999999999,0.9422299386554622,0.16972087453615833,1.0079639999999999,0.9422299386554622,0.16972087453615833,1.0079639999999999,-3.9289558823529447,34.80893760629581,147.0,-3.9289558823529447,34.80893760629581,147.0,-3.9289558823529447,34.80893760629581,147.0,0.7668402000000001,0.19324377361246328,0.6987399999999999,0.7668402000000001,0.19324377361246328,0.6987399999999999,0.7668402000000001,0.19324377361246328,0.6987399999999999
1,Wrist,30,2,No Fall,0.9510921621848739,0.20205604973614624,1.120448,0.9510921621848739,0.20205604973614624,1.120448,0.9510921621848739,0.20205604973614624,1.120448,-3.290750000000008,31.685844567562896,136.43,-3.290750000000008,31.685844567562896,136.43,-3.290750000000008,31.685844567562896,136.43,0.7983744125000003,0.1910210112520144,0.6388199999999999,0.7983744125000003,0.1910210112520144,0.6388199999999999,0.7983744125000003,0.1910210112520144,0.6388199999999999
1,Wrist,31,1,No Fall,0.8317644235294128,0.26343649620417675,1.3717679999999999,0.8317644235294128,0.26343649620417675,1.3717679999999999,0.8317644235294128,0.26343649620417675,1.3717679999999999,-6.4738676470588254,32.16596010231571,167.65000000000003,-6.4738676470588254,32.16596010231571,167.65000000000003,-6.4738676470588254,32.16596010231571,167.65000000000003,0.7867050624999998,0.21034536183536268,0.7041999999999999,0.7867050624999998,0.21034536183536268,0.7041999999999999,0.7867050624999998,0.21034536183536268,0.7041999999999999
1,Wrist,31,2,No Fall,0.9338595596638656,0.1561770348567987,1.159976,0.9338595596638656,0.1561770348567987,1.159976,0.9338595596638656,0.1561770348567987,1.159976,-2.8122647058823564,25.579712355194673,133.14000000000001,-2.8122647058823564,25.579712355194673,133.14000000000001,-2.8122647058823564,25.579712355194673,133.14000000000001,0.7872079249999999,0.1768098924126664,0.54208,0.7872079249999999,0.1768098924126664,0.54208,0.7872079249999999,0.1768098924126664,0.54208
1,Wrist,32,1,No Fall,0.9070997310924364,0.1220980689554339,0.781044,0.9070997310924364,0.1220980689554339,0.781044,0.9070997310924364,0.1220980689554339,0.781044,1.8564558823529433,13.316338907117341,79.38000000000001,1.8564558823529433,13.316338907117341,79.38000000000001,1.8564558823529433,13.316338907117341,79.38000000000001,0.5433653749999996,0.04044943789165021,0.21321999999999997,0.5433653749999996,0.04044943789165021,0.21321999999999997,0.5433653749999996,0.04044943789165021,0.21321999999999997
1,Wrist,32,2,No Fall,0.9164475966386549,0.15867843797947787,1.1458240000000002,0.9164475966386549,0.15867843797947787,1.1458240000000002,0.9164475966386549,0.15867843797947787,1.1458240000000002,1.7965294117647046,13.04597839461347,91.0,1.7965294117647046,13.04597839461347,91.0,1.7965294117647046,13.04597839461347,91.0,0.9462479249999993,0.03280977111882857,0.18059999999999987,0.9462479249999993,0.03280977111882857,0.18059999999999987,0.9462479249999993,0.03280977111882857,0.18059999999999987
1,Wrist,33,1,No Fall,0.9156361941176437,0.18799312827605116,0.9228080000000001,0.9156361941176437,0.18799312827605116,0.9228080000000001,0.9156361941176437,0.18799312827605116,0.9228080000000001,7.461999999999979,18.859996284095622,100.52000000000001,7.461999999999979,18.859996284095622,100.52000000000001,7.461999999999979,18.859996284095622,100.52000000000001,0.7176832249999981,0.2268899867124888,0.74942,0.7176832249999981,0.2268899867124888,0.74942,0.7176832249999981,0.2268899867124888,0.74942
1,Wrist,33,2,No Fall,0.9179434806722697,0.2036499049173335,1.045296,0.9179434806722697,0.2036499049173335,1.045296,0.9179434806722697,0.2036499049173335,1.045296,4.858867647058802,16.66508498929685,96.74000000000001,4.858867647058802,16.66508498929685,96.74000000000001,4.858867647058802,16.66508498929685,96.74000000000001,0.7024111500000003,0.2591708289174895,0.8527399999999998,0.7024111500000003,0.2591708289174895,0.8527399999999998,0.7024111500000003,0.2591708289174895,0.8527399999999998
1,Wrist,34,1,No Fall,0.9118070857142865,0.13820499715044093,0.9838079999999999,0.9118070857142865,0.13820499715044093,0.9838079999999999,0.9118070857142865,0.13820499715044093,0.9838079999999999,4.451823529411781,16.911059650730376,118.93,4.451823529411781,16.911059650730376,118.93,4.451823529411781,16.911059650730376,118.93,0.6907819624999999,0.2810873507365877,0.8174599999999999,0.6907819624999999,0.2810873507365877,0.8174599999999999,0.6907819624999999,0.2810873507365877,0.8174599999999999
1,Wrist,34,2,No Fall,0.9074146756302548,0.14270908273007385,1.0145520000000001,0.9074146756302548,0.14270908273007385,1.0145520000000001,0.9074146756302548,0.14270908273007385,1.0145520000000001,3.8364558823529618,13.472206115376961,104.09,3.8364558823529618,13.472206115376961,104.09,3.8364558823529618,13.472206115376961,104.09,0.7847372750000006,0.2671597475421138,0.7148399999999999,0.7847372750000006,0.2671597475421138,0.7148399999999999,0.7847372750000006,0.2671597475421138,0.7148399999999999
1,Wrist,35,1,No Fall,1.040857609243696,0.4199890383996205,2.5939639999999997,1.040857609243696,0.4199890383996205,2.5939639999999997,1.040857609243696,0.4199890383996205,2.5939639999999997,-7.1052500000000105,38.07734369322772,226.94000000000003,-7.1052500000000105,38.07734369322772,226.94000000000003,-7.1052500000000105,38.07734369322772,226.94000000000003,0.7963355750000001,0.19059219248782905,0.8012199999999998,0.7963355750000001,0.19059219248782905,0.8012199999999998,0.7963355750000001,0.19059219248782905,0.8012199999999998
1,Wrist,35,2,No Fall,1.0627582495798327,0.5437691993583682,3.152968,1.0627582495798327,0.5437691993583682,3.152968,1.0627582495798327,0.5437691993583682,3.152968,-4.493294117647057,46.79195031990135,245.28000000000003,-4.493294117647057,46.79195031990135,245.28000000000003,-4.493294117647057,46.79195031990135,245.28000000000003,0.8341637499999986,0.165792107575335,0.6783,0.8341637499999986,0.165792107575335,0.6783,0.8341637499999986,0.165792107575335,0.6783
1,Wrist,36,1,No Fall,0.961322887394958,0.4521871690211531,2.5498,0.961322887394958,0.4521871690211531,2.5498,0.961322887394958,0.4521871690211531,2.5498,13.232941176470598,43.37828447494182,226.73000000000002,13.232941176470598,43.37828447494182,226.73000000000002,13.232941176470598,43.37828447494182,226.73000000000002,0.6588971375000007,0.1856642242858553,0.8324400000000001,0.6588971375000007,0.1856642242858553,0.8324400000000001,0.6588971375000007,0.1856642242858553,0.8324400000000001
1,Wrist,36,2,No Fall,0.9266983647058834,0.4520993330980498,3.027308,0.9266983647058834,0.4520993330980498,3.027308,0.9266983647058834,0.4520993330980498,3.027308,9.975911764705906,50.181326887554626,248.85000000000002,9.975911764705906,50.181326887554626,248.85000000000002,9.975911764705906,50.181326887554626,248.85000000000002,0.6945845374999999,0.18484287511955297,0.85736,0.6945845374999999,0.18484287511955297,0.85736,0.6945845374999999,0.18484287511955297,0.85736
1,Wrist,37,1,No Fall,0.9155726310924363,0.024765645544419203,0.15347600000000006,0.9155726310924363,0.024765645544419203,0.15347600000000006,0.9155726310924363,0.024765645544419203,0.15347600000000006,0.3042794117647061,5.818661147692557,52.85000000000001,0.3042794117647061,5.818661147692557,52.85000000000001,0.3042794117647061,5.818661147692557,52.85000000000001,0.6021574125000001,0.032577765128885654,0.19558000000000003,0.6021574125000001,0.032577765128885654,0.19558000000000003,0.6021574125000001,0.032577765128885654,0.19558000000000003
1,Wrist,37,2,No Fall,0.8820074579831917,0.11659003561486464,0.7783599999999999,0.8820074579831917,0.11659003561486464,0.7783599999999999,0.8820074579831917,0.11659003561486464,0.7783599999999999,0.2835147058823519,13.915112995527151,171.22000000000003,0.2835147058823519,13.915112995527151,171.22000000000003,0.2835147058823519,13.915112995527151,171.22000000000003,0.7123822999999994,0.0274166181002058,0.14532,0.7123822999999994,0.0274166181002058,0.14532,0.7123822999999994,0.0274166181002058,0.14532
1,Wrist,38,1,No Fall,0.9119617386554622,0.05113120661068709,0.6375719999999999,0.9119617386554622,0.05113120661068709,0.6375719999999999,0.9119617386554622,0.05113120661068709,0.6375719999999999,2.6588088235294154,11.03024774696995,84.14000000000001,2.6588088235294154,11.03024774696995,84.14000000000001,2.6588088235294154,11.03024774696995,84.14000000000001,0.6834624999999988,0.10029986166818303,0.48636,0.6834624999999988,0.10029986166818303,0.48636,0.6834624999999988,0.10029986166818303,0.48636
1,Wrist,38,2,No Fall,0.7577592235294117,0.26319125787727915,1.3122319999999998,0.7577592235294117,0.26319125787727915,1.3122319999999998,0.7577592235294117,0.26319125787727915,1.3122319999999998,2.1603088235294043,16.24296288280027,211.26000000000002,2.1603088235294043,16.24296288280027,211.26000000000002,2.1603088235294043,16.24296288280027,211.26000000000002,0.7171423874999993,0.05084827595926787,0.22316000000000003,0.7171423874999993,0.05084827595926787,0.22316000000000003,0.7171423874999993,0.05084827595926787,0.22316000000000003
1,Wrist,39,1,No Fall,0.912022021008404,0.05590436443137198,0.8266719999999999,0.912022021008404,0.05590436443137198,0.8266719999999999,0.912022021008404,0.05590436443137198,0.8266719999999999,0.5564852941176464,8.643588016859953,103.04,0.5564852941176464,8.643588016859953,103.04,0.5564852941176464,8.643588016859953,103.04,0.6576035374999997,0.04426008284639301,0.3087,0.6576035374999997,0.04426008284639301,0.3087,0.6576035374999997,0.04426008284639301,0.3087
1,Wrist,39,2,No Fall,0.899932026050423,0.03793299813182352,0.45554799999999995,0.899932026050423,0.03793299813182352,0.45554799999999995,0.899932026050423,0.03793299813182352,0.45554799999999995,1.1670882352941174,9.966288809668601,88.34,1.1670882352941174,9.966288809668601,88.34,1.1670882352941174,9.966288809668601,88.34,0.6792412374999985,0.047707556928500816,0.20495999999999992,0.6792412374999985,0.047707556928500816,0.20495999999999992,0.6792412374999985,0.047707556928500816,0.20495999999999992
1,Wrist,40,1,No Fall,0.918481613445379,0.0701836150286381,0.9520879999999999,0.918481613445379,0.0701836150286381,0.9520879999999999,0.918481613445379,0.0701836150286381,0.9520879999999999,-0.42833823529411996,11.879096606885653,106.82000000000002,-0.42833823529411996,11.879096606885653,106.82000000000002,-0.42833823529411996,11.879096606885653,106.82000000000002,0.7425617499999992,0.11914798093458395,0.47053999999999985,0.7425617499999992,0.11914798093458395,0.47053999999999985,0.7425617499999992,0.11914798093458395,0.47053999999999985
1,Wrist,40,2,No Fall,0.8428121386554616,0.14977165608343676,0.679052,0.8428121386554616,0.14977165608343676,0.679052,0.8428121386554616,0.14977165608343676,0.679052,3.727985294117643,17.38280950813436,146.86,3.727985294117643,17.38280950813436,146.86,3.727985294117643,17.38280950813436,146.86,0.7250273624999989,0.0564006847992312,0.24122,0.7250273624999989,0.0564006847992312,0.24122,0.7250273624999989,0.0564006847992312,0.24122
1,Wrist,43,1,No Fall,0.13502811344537816,0.51510160599551,1.938336,0.13502811344537816,0.51510160599551,1.938336,0.13502811344537816,0.51510160599551,1.938336,5.916161764705877,87.9745413824422,450.80000000000007,5.916161764705877,87.9745413824422,450.80000000000007,5.916161764705877,87.9745413824422,450.80000000000007,0.4618095124999999,0.05167223223843401,0.3248,0.4618095124999999,0.05167223223843401,0.3248,0.4618095124999999,0.05167223223843401,0.3248
1,Wrist,43,2,No Fall,0.270691600840337,0.5263221131418754,1.7162959999999998,0.270691600840337,0.5263221131418754,1.7162959999999998,0.270691600840337,0.5263221131418754,1.7162959999999998,7.491161764705884,82.50289953156093,435.40000000000003,7.491161764705884,82.50289953156093,435.40000000000003,7.491161764705884,82.50289953156093,435.40000000000003,0.9230058250000001,0.0446272494692578,0.31079999999999997,0.9230058250000001,0.0446272494692578,0.31079999999999997,0.9230058250000001,0.0446272494692578,0.31079999999999997
1,Wrist,43,3,No Fall,0.31197153109243636,0.502937293386198,1.797548,0.31197153109243636,0.502937293386198,1.797548,0.31197153109243636,0.502937293386198,1.797548,11.552308823529389,81.0120242244849,388.9200000000001,11.552308823529389,81.0120242244849,388.9200000000001,11.552308823529389,81.0120242244849,388.9200000000001,0.6084237250000005,0.11856196273680855,0.5742799999999999,0.6084237250000005,0.11856196273680855,0.5742799999999999,0.6084237250000005,0.11856196273680855,0.5742799999999999
1,Wrist,44,1,No Fall,0.0011146596638653794,0.5093419841803143,1.9893319999999999,0.0011146596638653794,0.5093419841803143,1.9893319999999999,0.0011146596638653794,0.5093419841803143,1.9893319999999999,8.885176470588231,88.34880391514206,438.34000000000003,8.885176470588231,88.34880391514206,438.34000000000003,8.885176470588231,88.34880391514206,438.34000000000003,0.49068818749999954,0.06831778056024483,0.28826,0.49068818749999954,0.06831778056024483,0.28826,0.49068818749999954,0.06831778056024483,0.28826
1,Wrist,44,2,No Fall,0.07053486386554629,0.4978151562856365,1.9546839999999999,0.07053486386554629,0.4978151562856365,1.9546839999999999,0.07053486386554629,0.4978151562856365,1.9546839999999999,8.52407352941177,86.97964096745312,444.01,8.52407352941177,86.97964096745312,444.01,8.52407352941177,86.97964096745312,444.01,0.9373525874999998,0.0817513357650317,0.54908,0.9373525874999998,0.0817513357650317,0.54908,0.9373525874999998,0.0817513357650317,0.54908
1,Wrist,44,3,No Fall,0.2833805235294119,0.540438267406666,2.254316,0.2833805235294119,0.540438267406666,2.254316,0.2833805235294119,0.540438267406666,2.254316,9.930882352941158,86.53103524577075,460.18000000000006,9.930882352941158,86.53103524577075,460.18000000000006,9.930882352941158,86.53103524577075,460.18000000000006,0.8363982375000011,0.20215722041086281,0.6664,0.8363982375000011,0.20215722041086281,0.6664,0.8363982375000011,0.20215722041086281,0.6664
1,Wrist,101,1,Fall,0.3427497731092475,0.5542042702010668,7.969528,0.3427497731092475,0.5542042702010668,7.969528,0.3427497731092475,0.5542042702010668,7.969528,5.505573529411516,33.5674784339283,739.9000000000001,5.505573529411516,33.5674784339283,739.9000000000001,5.505573529411516,33.5674784339283,739.9000000000001,0.8073012499999999,0.17168014313587535,0.57918,0.8073012499999999,0.17168014313587535,0.57918,0.8073012499999999,0.17168014313587535,0.57918
1,Wrist,101,2,Fall,0.6153865050420164,0.4588723917477323,9.423036,0.6153865050420164,0.4588723917477323,9.423036,0.6153865050420164,0.4588723917477323,9.423036,4.240235294117641,30.629382953852414,528.01,4.240235294117641,30.629382953852414,528.01,4.240235294117641,30.629382953852414,528.01,1.041393762500001,0.12001275028507581,0.65674,1.041393762500001,0.12001275028507581,0.65674,1.041393762500001,0.12001275028507581,0.65674
1,Wrist,101,3,Fall,0.4251811235294086,0.6215071587188089,10.875323999999999,0.4251811235294086,0.6215071587188089,10.875323999999999,0.4251811235294086,0.6215071587188089,10.875323999999999,-0.6691617647058863,19.277706425436175,317.94000000000005,-0.6691617647058863,19.277706425436175,317.94000000000005,-0.6691617647058863,19.277706425436175,317.94000000000005,0.2091646374999994,0.11709429067128325,0.5062399999999999,0.2091646374999994,0.11709429067128325,0.5062399999999999,0.2091646374999994,0.11709429067128325,0.5062399999999999
1,Wrist,102,1,Fall,0.8635967865546198,0.38229981798457746,9.475252,0.8635967865546198,0.38229981798457746,9.475252,0.8635967865546198,0.38229981798457746,9.475252,4.633970588235284,35.12072875117239,652.47,4.633970588235284,35.12072875117239,652.47,4.633970588235284,35.12072875117239,652.47,0.8584041375000002,0.13272459761434008,0.6092799999999999,0.8584041375000002,0.13272459761434008,0.6092799999999999,0.8584041375000002,0.13272459761434008,0.6092799999999999
1,Wrist,102,2,Fall,0.7674706285714314,0.3602386772523861,8.973344,0.7674706285714314,0.3602386772523861,8.973344,0.7674706285714314,0.3602386772523861,8.973344,4.99916176470587,42.67560624165965,728.3500000000001,4.99916176470587,42.67560624165965,728.3500000000001,4.99916176470587,42.67560624165965,728.3500000000001,0.9127736625000008,0.13805380162703207,0.52808,0.9127736625000008,0.13805380162703207,0.52808,0.9127736625000008,0.13805380162703207,0.52808
1,Wrist,102,3,Fall,0.8039972747899196,0.5164274738852592,9.246136,0.8039972747899196,0.5164274738852592,9.246136,0.8039972747899196,0.5164274738852592,9.246136,0.4246911764705831,52.07867524269272,1260.2800000000002,0.4246911764705831,52.07867524269272,1260.2800000000002,0.4246911764705831,52.07867524269272,1260.2800000000002,0.32019050000000027,0.12993051269844702,0.8583399999999999,0.32019050000000027,0.12993051269844702,0.8583399999999999,0.32019050000000027,0.12993051269844702,0.8583399999999999
1,Wrist,103,1,Fall,0.4841973932773038,0.5932100538749597,11.74494,0.4841973932773038,0.5932100538749597,11.74494,0.4841973932773038,0.5932100538749597,11.74494,7.776470588236155,40.531753306243566,591.71,7.776470588236155,40.531753306243566,591.71,7.776470588236155,40.531753306243566,591.71,0.986427837499999,0.16542083342767316,0.53858,0.986427837499999,0.16542083342767316,0.53858,0.986427837499999,0.16542083342767316,0.53858
1,Wrist,103,2,Fall,0.45312455714285665,0.5525211686295342,11.36308,0.45312455714285665,0.5525211686295342,11.36308,0.45312455714285665,0.5525211686295342,11.36308,8.21100000000087,37.405561095790155,760.3400000000001,8.21100000000087,37.405561095790155,760.3400000000001,8.21100000000087,37.405561095790155,760.3400000000001,0.9989701750000003,0.16729268704259193,0.59444,0.9989701750000003,0.16729268704259193,0.59444,0.9989701750000003,0.16729268704259193,0.59444
1,Wrist,104,1,Fall,0.8041923210084035,0.3283609791897752,9.072408,0.8041923210084035,0.3283609791897752,9.072408,0.8041923210084035,0.3283609791897752,9.072408,4.547558823529383,28.326347425033365,655.1300000000001,4.547558823529383,28.326347425033365,655.1300000000001,4.547558823529383,28.326347425033365,655.1300000000001,0.8438360000000011,0.13740108269935258,0.58618,0.8438360000000011,0.13740108269935258,0.58618,0.8438360000000011,0.13740108269935258,0.58618
1,Wrist,104,2,Fall,0.8736512268907554,0.29017059123009126,11.214483999999999,0.8736512268907554,0.29017059123009126,11.214483999999999,0.8736512268907554,0.29017059123009126,11.214483999999999,3.673102941176481,51.414989273703426,1215.41,3.673102941176481,51.414989273703426,1215.41,3.673102941176481,51.414989273703426,1215.41,0.84636895,0.1128340649107139,0.5963999999999998,0.84636895,0.1128340649107139,0.5963999999999998,0.84636895,0.1128340649107139,0.5963999999999998
1,Wrist,105,1,Fall,0.321936573109242,0.6069776196718814,9.324948,0.321936573109242,0.6069776196718814,9.324948,0.321936573109242,0.6069776196718814,9.324948,8.28226470588305,37.13552187644697,851.4100000000001,8.28226470588305,37.13552187644697,851.4100000000001,8.28226470588305,37.13552187644697,851.4100000000001,0.569717575,0.29127786663916955,0.8696799999999999,0.569717575,0.29127786663916955,0.8696799999999999,0.569717575,0.29127786663916955,0.8696799999999999
1,Wrist,105,2,Fall,0.6253314529411739,0.413453626741376,10.069148,0.6253314529411739,0.413453626741376,10.069148,0.6253314529411739,0.413453626741376,10.069148,4.022602941176464,31.602857705936373,503.86,4.022602941176464,31.602857705936373,503.86,4.022602941176464,31.602857705936373,503.86,0.946603700000001,0.15117498406379684,0.53004,0.946603700000001,0.15117498406379684,0.53004,0.946603700000001,0.15117498406379684,0.53004
1,Wrist,105,3,Fall,0.22953720756302606,0.6061013807593986,8.232315999999999,0.22953720756302606,0.6061013807593986,8.232315999999999,0.22953720756302606,0.6061013807593986,8.232315999999999,7.221250000000358,34.47875559049701,771.33,7.221250000000358,34.47875559049701,771.33,7.221250000000358,34.47875559049701,771.33,0.5927131875000007,0.3186701683692247,0.83916,0.5927131875000007,0.3186701683692247,0.83916,0.5927131875000007,0.3186701683692247,0.83916
1,Wrist,105,4,Fall,0.4132456789915944,0.5456304488325988,9.154148,0.4132456789915944,0.5456304488325988,9.154148,0.4132456789915944,0.5456304488325988,9.154148,1.3821470588235496,33.3444906531003,985.6700000000001,1.3821470588235496,33.3444906531003,985.6700000000001,1.3821470588235496,33.3444906531003,985.6700000000001,0.11158411250000007,0.14193542589163277,0.6018599999999998,0.11158411250000007,0.14193542589163277,0.6018599999999998,0.11158411250000007,0.14193542589163277,0.6018599999999998
1,Wrist,106,1,Fall,0.672893152941177,0.5270157812326087,9.581392,0.672893152941177,0.5270157812326087,9.581392,0.672893152941177,0.5270157812326087,9.581392,4.482161764705898,38.70903695542271,707.5600000000001,4.482161764705898,38.70903695542271,707.5600000000001,4.482161764705898,38.70903695542271,707.5600000000001,0.8457834000000005,0.19621548218245943,0.8602999999999998,0.8457834000000005,0.19621548218245943,0.8602999999999998,0.8457834000000005,0.19621548218245943,0.8602999999999998
1,Wrist,107,1,Fall,0.15536377058823653,0.8059524590760901,7.9544,0.15536377058823653,0.8059524590760901,7.9544,0.15536377058823653,0.8059524590760901,7.9544,5.286529411764704,28.52840675514416,504.84000000000003,5.286529411764704,28.52840675514416,504.84000000000003,5.286529411764704,28.52840675514416,504.84000000000003,1.0155660375000013,0.08549342375726743,0.53774,1.0155660375000013,0.08549342375726743,0.53774,1.0155660375000013,0.08549342375726743,0.53774
1,Wrist,107,3,Fall,0.12052010924369487,0.8420939893231727,5.5902840000000005,0.12052010924369487,0.8420939893231727,5.5902840000000005,0.12052010924369487,0.8420939893231727,5.5902840000000005,9.295544117646731,44.02976293700493,506.03000000000003,9.295544117646731,44.02976293700493,506.03000000000003,9.295544117646731,44.02976293700493,506.03000000000003,0.95655735,0.11640364733621235,0.5448799999999999,0.95655735,0.11640364733621235,0.5448799999999999,0.95655735,0.11640364733621235,0.5448799999999999
1,Wrist,107,4,Fall,0.10607607815125937,0.8432797618853773,8.859396,0.10607607815125937,0.8432797618853773,8.859396,0.10607607815125937,0.8432797618853773,8.859396,8.6002205882351,34.24666143787374,561.47,8.6002205882351,34.24666143787374,561.47,8.6002205882351,34.24666143787374,561.47,0.9454845749999989,0.13662073191984198,0.61698,0.9454845749999989,0.13662073191984198,0.61698,0.9454845749999989,0.13662073191984198,0.61698
1,Wrist,107,5,Fall,0.3921015411764716,0.5744033699832065,7.6555,0.3921015411764716,0.5744033699832065,7.6555,0.3921015411764716,0.5744033699832065,7.6555,1.6291764705882332,35.23102772375242,568.82,1.6291764705882332,35.23102772375242,568.82,1.6291764705882332,35.23102772375242,568.82,0.6113731750000005,0.33992205461241687,0.7926799999999999,0.6113731750000005,0.33992205461241687,0.7926799999999999,0.6113731750000005,0.33992205461241687,0.7926799999999999
1,Wrist,108,1,Fall,0.6714185932773101,0.5786116480808182,9.727791999999999,0.6714185932773101,0.5786116480808182,9.727791999999999,0.6714185932773101,0.5786116480808182,9.727791999999999,0.06466176470589131,46.077692605909895,553.6300000000001,0.06466176470589131,46.077692605909895,553.6300000000001,0.06466176470589131,46.077692605909895,553.6300000000001,0.9588023374999979,0.10757624373401893,0.5626599999999998,0.9588023374999979,0.10757624373401893,0.5626599999999998,0.9588023374999979,0.10757624373401893,0.5626599999999998
1,Wrist,108,3,Fall,0.703149665546219,0.562358039364838,8.863056,0.703149665546219,0.562358039364838,8.863056,0.703149665546219,0.562358039364838,8.863056,4.424882352941174,56.284699401400836,484.33000000000004,4.424882352941174,56.284699401400836,484.33000000000004,4.424882352941174,56.284699401400836,484.33000000000004,0.8801659124999994,0.13076853250103834,0.5924799999999999,0.8801659124999994,0.13076853250103834,0.5924799999999999,0.8801659124999994,0.13076853250103834,0.5924799999999999
1,Wrist,108,5,Fall,0.24229225630251952,0.7844645852014405,7.968064,0.24229225630251952,0.7844645852014405,7.968064,0.24229225630251952,0.7844645852014405,7.968064,1.954308823529413,34.345661342021415,669.48,1.954308823529413,34.345661342021415,669.48,1.954308823529413,34.345661342021415,669.48,0.47944303750000006,0.24062805067210064,0.6960799999999999,0.47944303750000006,0.24062805067210064,0.6960799999999999,0.47944303750000006,0.24062805067210064,0.6960799999999999
1,Wrist,108,6,Fall,0.8328563235294132,0.36389245832173556,7.098447999999999,0.8328563235294132,0.36389245832173556,7.098447999999999,0.8328563235294132,0.36389245832173556,7.098447999999999,-0.2514852941176408,37.45553967860935,440.1600000000001,-0.2514852941176408,37.45553967860935,440.1600000000001,-0.2514852941176408,37.45553967860935,440.1600000000001,0.3726183125000002,0.23715043298994706,0.9657199999999999,0.3726183125000002,0.23715043298994706,0.9657199999999999,0.3726183125000002,0.23715043298994706,0.9657199999999999
1,Wrist,109,1,Fall,0.3259964563025205,0.5505271079658169,4.59818,0.3259964563025205,0.5505271079658169,4.59818,0.3259964563025205,0.5505271079658169,4.59818,13.950250000000441,39.97681281190086,524.9300000000001,13.950250000000441,39.97681281190086,524.9300000000001,13.950250000000441,39.97681281190086,524.9300000000001,0.4861262874999995,0.3950845536274978,1.07842,0.4861262874999995,0.3950845536274978,1.07842,0.4861262874999995,0.3950845536274978,1.07842
1,Wrist,109,2,Fall,0.5035511042016803,0.34732115697503824,2.596648,0.5035511042016803,0.34732115697503824,2.596648,0.5035511042016803,0.34732115697503824,2.596648,7.732102941176432,28.133441372888065,273.14000000000004,7.732102941176432,28.133441372888065,273.14000000000004,7.732102941176432,28.133441372888065,273.14000000000004,0.9024573250000002,0.126011217765408,0.5985,0.9024573250000002,0.126011217765408,0.5985,0.9024573250000002,0.126011217765408,0.5985
1,Wrist,109,3,Fall,0.6856588126050402,0.5954331375196978,14.323288,0.6856588126050402,0.5954331375196978,14.323288,0.6856588126050402,0.5954331375196978,14.323288,0.4744558823529338,61.495999486513675,648.27,0.4744558823529338,61.495999486513675,648.27,0.4744558823529338,61.495999486513675,648.27,0.42330767499999944,0.2722821893353246,1.06722,0.42330767499999944,0.2722821893353246,1.06722,0.42330767499999944,0.2722821893353246,1.06722
1,Wrist,110,1,Fall,0.6770235705882366,0.4631536418297012,4.357596,0.6770235705882366,0.4631536418297012,4.357596,0.6770235705882366,0.4631536418297012,4.357596,10.137661764705864,37.07777731639238,401.80000000000007,10.137661764705864,37.07777731639238,401.80000000000007,10.137661764705864,37.07777731639238,401.80000000000007,0.7473448500000007,0.25709622114065694,1.07338,0.7473448500000007,0.25709622114065694,1.07338,0.7473448500000007,0.25709622114065694,1.07338
1,Wrist,110,2,Fall,0.5932439663865534,0.35412731350644516,2.990952,0.5932439663865534,0.35412731350644516,2.990952,0.5932439663865534,0.35412731350644516,2.990952,5.885176470588235,31.57238167063619,227.43000000000004,5.885176470588235,31.57238167063619,227.43000000000004,5.885176470588235,31.57238167063619,227.43000000000004,0.9474752000000002,0.1635756327673288,0.7219800000000001,0.9474752000000002,0.1635756327673288,0.7219800000000001,0.9474752000000002,0.1635756327673288,0.7219800000000001
1,Wrist,110,3,Fall,0.632643046218487,0.37649944503391625,5.943352,0.632643046218487,0.37649944503391625,5.943352,0.632643046218487,0.37649944503391625,5.943352,2.428544117647059,34.51877484214038,283.43000000000006,2.428544117647059,34.51877484214038,283.43000000000006,2.428544117647059,34.51877484214038,283.43000000000006,0.5978055124999997,0.3071896900017794,0.8699599999999998,0.5978055124999997,0.3071896900017794,0.8699599999999998,0.5978055124999997,0.3071896900017794,0.8699599999999998
1,Wrist,111,1,Fall,0.29636639831933054,0.5635345327932281,9.031416,0.29636639831933054,0.5635345327932281,9.031416,0.29636639831933054,0.5635345327932281,9.031416,3.2445588235294487,28.601972001399876,757.47,3.2445588235294487,28.601972001399876,757.47,3.2445588235294487,28.601972001399876,757.47,0.6063024624999994,0.35122660500982567,0.7989799999999999,0.6063024624999994,0.35122660500982567,0.7989799999999999,0.6063024624999994,0.35122660500982567,0.7989799999999999
1,Wrist,112,1,Fall,0.049503909243698234,0.7603797057303646,4.874632,0.049503909243698234,0.7603797057303646,4.874632,0.049503909243698234,0.7603797057303646,4.874632,6.385529411764652,28.897134385281362,339.43000000000006,6.385529411764652,28.897134385281362,339.43000000000006,6.385529411764652,28.897134385281362,339.43000000000006,1.0028192125000026,0.10887304225661763,0.5082,1.0028192125000026,0.10887304225661763,0.5082,1.0028192125000026,0.10887304225661763,0.5082
1,Wrist,113,1,Fall,0.2016857352941173,0.5972944210332892,8.656876,0.2016857352941173,0.5972944210332892,8.656876,0.2016857352941173,0.5972944210332892,8.656876,5.012279411764894,33.63586043746894,703.2900000000001,5.012279411764894,33.63586043746894,703.2900000000001,5.012279411764894,33.63586043746894,703.2900000000001,0.6295677499999992,0.3194734365848976,0.89446,0.6295677499999992,0.3194734365848976,0.89446,0.6295677499999992,0.3194734365848976,0.89446
1,Wrist,113,2,Fall,0.5430413764705907,0.3864068962741113,5.168164,0.5430413764705907,0.3864068962741113,5.168164,0.5430413764705907,0.3864068962741113,5.168164,6.6207647058823484,33.270508831933526,475.51,6.6207647058823484,33.270508831933526,475.51,6.6207647058823484,33.270508831933526,475.51,0.9307068749999996,0.20443172257010406,0.6054999999999998,0.9307068749999996,0.20443172257010406,0.6054999999999998,0.9307068749999996,0.20443172257010406,0.6054999999999998
1,Wrist,113,3,Fall,0.3405741235294111,0.5843434369254422,8.909904,0.3405741235294111,0.5843434369254422,8.909904,0.3405741235294111,0.5843434369254422,8.909904,0.2088823529411672,31.936675148036997,722.19,0.2088823529411672,31.936675148036997,722.19,0.2088823529411672,31.936675148036997,722.19,0.12039676250000017,0.1570440126093761,0.5399799999999999,0.12039676250000017,0.1570440126093761,0.5399799999999999,0.12039676250000017,0.1570440126093761,0.5399799999999999
1,Wrist,114,1,Fall,0.29707061512605076,0.5707724041972096,8.268428,0.29707061512605076,0.5707724041972096,8.268428,0.29707061512605076,0.5707724041972096,8.268428,2.992117647058851,26.402440865237587,689.08,2.992117647058851,26.402440865237587,689.08,2.992117647058851,26.402440865237587,689.08,0.6080394250000011,0.35888941051984796,0.9582999999999999,0.6080394250000011,0.35888941051984796,0.9582999999999999,0.6080394250000011,0.35888941051984796,0.9582999999999999
1,Wrist,114,2,Fall,0.5570029436974798,0.36933014573105827,8.199375999999999,0.5570029436974798,0.36933014573105827,8.199375999999999,0.5570029436974798,0.36933014573105827,8.199375999999999,2.0176470588235365,21.980878111973627,457.31000000000006,2.0176470588235365,21.980878111973627,457.31000000000006,2.0176470588235365,21.980878111973627,457.31000000000006,0.9690348499999999,0.10971332092763672,0.50428,0.9690348499999999,0.10971332092763672,0.50428,0.9690348499999999,0.10971332092763672,0.50428
1,Wrist,115,1,Fall,0.3018290252100848,0.46462628508156173,6.159048,0.3018290252100848,0.46462628508156173,6.159048,0.3018290252100848,0.46462628508156173,6.159048,1.3670441176470276,22.077616404502976,417.69000000000005,1.3670441176470276,22.077616404502976,417.69000000000005,1.3670441176470276,22.077616404502976,417.69000000000005,0.3294448500000001,0.27017385815247885,0.84644,0.3294448500000001,0.27017385815247885,0.84644,0.3294448500000001,0.27017385815247885,0.84644
1,Wrist,116,1,Fall,0.5128662142857143,0.3457903336609339,2.69742,0.5128662142857143,0.3457903336609339,2.69742,0.5128662142857143,0.3457903336609339,2.69742,0.09152941176470746,28.34307258459444,400.82000000000005,0.09152941176470746,28.34307258459444,400.82000000000005,0.09152941176470746,28.34307258459444,400.82000000000005,0.5349153249999999,0.2052752910236272,1.01934,0.5349153249999999,0.2052752910236272,1.01934,0.5349153249999999,0.2052752910236272,1.01934
1,Wrist,116,2,Fall,0.37351320084033457,0.5625184727745905,8.956752,0.37351320084033457,0.5625184727745905,8.956752,0.37351320084033457,0.5625184727745905,8.956752,2.7265294117646772,31.0680351662504,431.48,2.7265294117646772,31.0680351662504,431.48,2.7265294117646772,31.0680351662504,431.48,0.1145731999999996,0.16831862610000303,0.9507399999999999,0.1145731999999996,0.16831862610000303,0.9507399999999999,0.1145731999999996,0.16831862610000303,0.9507399999999999
1,Wrist,117,1,Fall,0.03869296638655502,0.7205521424215485,3.4745600000000003,0.03869296638655502,0.7205521424215485,3.4745600000000003,0.03869296638655502,0.7205521424215485,3.4745600000000003,5.584264705882316,34.69630414395084,426.86,5.584264705882316,34.69630414395084,426.86,5.584264705882316,34.69630414395084,426.86,0.6559714875000003,0.11378837913558569,0.7169399999999999,0.6559714875000003,0.11378837913558569,0.7169399999999999,0.6559714875000003,0.11378837913558569,0.7169399999999999
1,Wrist,117,2,Fall,0.3892983605042024,0.506895767155606,10.280940000000001,0.3892983605042024,0.506895767155606,10.280940000000001,0.3892983605042024,0.506895767155606,10.280940000000001,-1.7957058823529186,26.03966842638971,808.3600000000001,-1.7957058823529186,26.03966842638971,808.3600000000001,-1.7957058823529186,26.03966842638971,808.3600000000001,0.21280236249999976,0.10916119427080179,0.59878,0.21280236249999976,0.10916119427080179,0.59878,0.21280236249999976,0.10916119427080179,0.59878
1,Wrist,118,1,Fall,0.6387964084033618,0.49217590518859566,5.687884,0.6387964084033618,0.49217590518859566,5.687884,0.6387964084033618,0.49217590518859566,5.687884,3.83714705882353,59.48725588480045,565.32,3.83714705882353,59.48725588480045,565.32,3.83714705882353,59.48725588480045,565.32,0.6730110625000003,0.21367083718194863,1.02998,0.6730110625000003,0.21367083718194863,1.02998,0.6730110625000003,0.21367083718194863,1.02998
1,Wrist,118,2,Fall,0.6847411983193286,0.47408050077320546,7.453956,0.6847411983193286,0.47408050077320546,7.453956,0.6847411983193286,0.47408050077320546,7.453956,-0.5326323529411771,54.7805139955789,1210.23,-0.5326323529411771,54.7805139955789,1210.23,-0.5326323529411771,54.7805139955789,1210.23,0.1938028749999998,0.14375311200280466,0.7930999999999999,0.1938028749999998,0.14375311200280466,0.7930999999999999,0.1938028749999998,0.14375311200280466,0.7930999999999999
1,Wrist,119,1,Fall,0.28650305714286195,0.45775478030039823,5.933592,0.28650305714286195,0.45775478030039823,5.933592,0.28650305714286195,0.45775478030039823,5.933592,7.740941176471352,44.62282927158313,1009.0500000000001,7.740941176471352,44.62282927158313,1009.0500000000001,7.740941176471352,44.62282927158313,1009.0500000000001,0.3280620000000004,0.22902832811231838,0.7261799999999999,0.3280620000000004,0.22902832811231838,0.7261799999999999,0.3280620000000004,0.22902832811231838,0.7261799999999999
1,Wrist,119,2,Fall,0.5123937974789933,0.28415047610720445,2.789408,0.5123937974789933,0.28415047610720445,2.789408,0.5123937974789933,0.28415047610720445,2.789408,3.390397058823519,31.89064231580262,364.07000000000005,3.390397058823519,31.89064231580262,364.07000000000005,3.390397058823519,31.89064231580262,364.07000000000005,0.95344725,0.2064472687265816,0.49854,0.95344725,0.2064472687265816,0.49854,0.95344725,0.2064472687265816,0.49854
1,Wrist,119,3,Fall,0.16612458067226746,0.6395573819106533,10.186268,0.16612458067226746,0.6395573819106533,10.186268,0.16612458067226746,0.6395573819106533,10.186268,1.0139117647059042,45.172020687439826,1204.91,1.0139117647059042,45.172020687439826,1204.91,1.0139117647059042,45.172020687439826,1204.91,0.46553692499999966,0.20560958082704822,0.8462999999999999,0.46553692499999966,0.20560958082704822,0.8462999999999999,0.46553692499999966,0.20560958082704822,0.8462999999999999
1,Wrist,120,1,Fall,0.7100180605042004,0.3959131686576405,8.516088,0.7100180605042004,0.3959131686576405,8.516088,0.7100180605042004,0.3959131686576405,8.516088,2.850588235294149,49.58500476189797,1094.66,2.850588235294149,49.58500476189797,1094.66,2.850588235294149,49.58500476189797,1094.66,0.6266032499999994,0.1942055707575308,0.9056599999999999,0.6266032499999994,0.1942055707575308,0.9056599999999999,0.6266032499999994,0.1942055707575308,0.9056599999999999
1,Wrist,120,3,Fall,0.716795673109242,0.46723504583437936,8.22402,0.716795673109242,0.46723504583437936,8.22402,0.716795673109242,0.46723504583437936,8.22402,-6.773338235294116,50.83975873031828,635.6000000000001,-6.773338235294116,50.83975873031828,635.6000000000001,-6.773338235294116,50.83975873031828,635.6000000000001,0.21406104999999986,0.1781512484729767,1.02522,0.21406104999999986,0.1781512484729767,1.02522,0.21406104999999986,0.1781512484729767,1.02522
1,Wrist,121,1,Fall,0.12700886890756252,0.5171084331961444,9.84784,0.12700886890756252,0.5171084331961444,9.84784,0.12700886890756252,0.5171084331961444,9.84784,13.039500000000618,86.99302106283913,707.0000000000001,13.039500000000618,86.99302106283913,707.0000000000001,13.039500000000618,86.99302106283913,707.0000000000001,0.8788466749999997,0.28362877931413943,0.86268,0.8788466749999997,0.28362877931413943,0.86268,0.8788466749999997,0.28362877931413943,0.86268
1,Wrist,121,2,Fall,-0.0070496521008403595,0.36494842521364934,4.84706,-0.0070496521008403595,0.36494842521364934,4.84706,-0.0070496521008403595,0.36494842521364934,4.84706,11.458985294118191,68.7528619878416,569.8700000000001,11.458985294118191,68.7528619878416,569.8700000000001,11.458985294118191,68.7528619878416,569.8700000000001,0.8962288999999997,0.13509666615814198,0.55202,0.8962288999999997,0.13509666615814198,0.55202,0.8962288999999997,0.13509666615814198,0.55202
1,Wrist,122,1,Fall,0.4785178319327725,0.5403711742026686,9.649467999999999,0.4785178319327725,0.5403711742026686,9.649467999999999,0.4785178319327725,0.5403711742026686,9.649467999999999,11.670014705882316,77.7444755058163,700.21,11.670014705882316,77.7444755058163,700.21,11.670014705882316,77.7444755058163,700.21,0.7500665375000013,0.2540343111088027,0.8542799999999999,0.7500665375000013,0.2540343111088027,0.8542799999999999,0.7500665375000013,0.2540343111088027,0.8542799999999999
1,Wrist,123,1,Fall,0.07312326302520959,0.40885877544832977,9.37082,0.07312326302520959,0.40885877544832977,9.37082,0.07312326302520959,0.40885877544832977,9.37082,13.389970588235844,84.48696258262471,612.99,13.389970588235844,84.48696258262471,612.99,13.389970588235844,84.48696258262471,612.99,0.8972697124999998,0.29949879176690497,0.87374,0.8972697124999998,0.29949879176690497,0.87374,0.8972697124999998,0.29949879176690497,0.87374
1,Wrist,123,2,Fall,0.049912557983193336,0.4335378132508233,7.2163,0.049912557983193336,0.4335378132508233,7.2163,0.049912557983193336,0.4335378132508233,7.2163,-2.744294117647035,71.53983670082926,616.3500000000001,-2.744294117647035,71.53983670082926,616.3500000000001,-2.744294117647035,71.53983670082926,616.3500000000001,0.8351672875000002,0.1639312449819074,0.57764,0.8351672875000002,0.1639312449819074,0.57764,0.8351672875000002,0.1639312449819074,0.57764
1,Wrist,124,1,Fall,0.4273010529411768,0.5340229314318957,10.735024,0.4273010529411768,0.5340229314318957,10.735024,0.4273010529411768,0.5340229314318957,10.735024,9.689176470588269,82.90792011409306,769.58,9.689176470588269,82.90792011409306,769.58,9.689176470588269,82.90792011409306,769.58,0.7553311500000001,0.24105327085791037,0.7753199999999999,0.7553311500000001,0.24105327085791037,0.7753199999999999,0.7553311500000001,0.24105327085791037,0.7753199999999999
1,Wrist,124,2,Fall,0.4775355781512602,0.6115445451545709,8.790588,0.4775355781512602,0.6115445451545709,8.790588,0.4775355781512602,0.6115445451545709,8.790588,11.79158823529416,75.88293480859575,696.08,11.79158823529416,75.88293480859575,696.08,11.79158823529416,75.88293480859575,696.08,0.8342652500000008,0.17211416365241003,0.6162799999999999,0.8342652500000008,0.17211416365241003,0.6162799999999999,0.8342652500000008,0.17211416365241003,0.6162799999999999
1,Wrist,125,1,Fall,-0.050280198319328014,0.4040136730411447,8.936012,-0.050280198319328014,0.4040136730411447,8.936012,-0.050280198319328014,0.4040136730411447,8.936012,12.796426470589,65.54346311602542,783.0200000000001,12.796426470589,65.54346311602542,783.0200000000001,12.796426470589,65.54346311602542,783.0200000000001,0.5111887374999998,0.2762467426145677,0.8874599999999999,0.5111887374999998,0.2762467426145677,0.8874599999999999,0.5111887374999998,0.2762467426145677,0.8874599999999999
1,Wrist,125,2,Fall,0.35328349915966395,0.5671408603744833,6.964004,0.35328349915966395,0.5671408603744833,6.964004,0.35328349915966395,0.5671408603744833,6.964004,3.354647058823516,60.563954156038285,371.77000000000004,3.354647058823516,60.563954156038285,371.77000000000004,3.354647058823516,60.563954156038285,371.77000000000004,0.8449990500000009,0.10876913490296646,0.46942000000000006,0.8449990500000009,0.10876913490296646,0.46942000000000006,0.8449990500000009,0.10876913490296646,0.46942000000000006
1,Wrist,126,1,Fall,0.30150444369747914,0.5752501066467373,9.052644,0.30150444369747914,0.5752501066467373,9.052644,0.30150444369747914,0.5752501066467373,9.052644,7.891926470588257,69.59804226775763,725.76,7.891926470588257,69.59804226775763,725.76,7.891926470588257,69.59804226775763,725.76,0.6007142749999985,0.20724048673054216,0.9036999999999998,0.6007142749999985,0.20724048673054216,0.9036999999999998,0.6007142749999985,0.20724048673054216,0.9036999999999998
1,Wrist,126,2,Fall,0.3014586168067232,0.57034415306325,5.602728,0.3014586168067232,0.57034415306325,5.602728,0.3014586168067232,0.57034415306325,5.602728,9.868058823529372,91.53811492224622,600.8800000000001,9.868058823529372,91.53811492224622,600.8800000000001,9.868058823529372,91.53811492224622,600.8800000000001,0.7884493750000003,0.29430119608977484,0.9316999999999998,0.7884493750000003,0.29430119608977484,0.9316999999999998,0.7884493750000003,0.29430119608977484,0.9316999999999998
1,Wrist,127,1,Fall,0.30855870924369716,0.4660693334366276,3.411608,0.30855870924369716,0.4660693334366276,3.411608,0.30855870924369716,0.4660693334366276,3.411608,8.793191176470549,37.75251863624651,473.55,8.793191176470549,37.75251863624651,473.55,8.793191176470549,37.75251863624651,473.55,0.628051637500001,0.18556564963179642,0.86814,0.628051637500001,0.18556564963179642,0.86814,0.628051637500001,0.18556564963179642,0.86814
1,Wrist,127,2,Fall,-0.13727921848739502,0.21437607475112033,4.2029,-0.13727921848739502,0.21437607475112033,4.2029,-0.13727921848739502,0.21437607475112033,4.2029,2.0408088235294266,15.966084726086455,453.46000000000004,2.0408088235294266,15.966084726086455,453.46000000000004,2.0408088235294266,15.966084726086455,453.46000000000004,0.6382752249999989,0.3599874097530187,1.0008599999999999,0.6382752249999989,0.3599874097530187,1.0008599999999999,0.6382752249999989,0.3599874097530187,1.0008599999999999
1,Wrist,127,3,Fall,0.29703919243697513,0.4247303017521206,1.7677800000000001,0.29703919243697513,0.4247303017521206,1.7677800000000001,0.29703919243697513,0.4247303017521206,1.7677800000000001,9.331573529411806,42.42639183981976,426.72,9.331573529411806,42.42639183981976,426.72,9.331573529411806,42.42639183981976,426.72,0.7949805500000001,0.14313441428092055,0.88886,0.7949805500000001,0.14313441428092055,0.88886,0.7949805500000001,0.14313441428092055,0.88886
1,Wrist,127,4,Fall,-0.13099268151260487,0.17979649776455606,2.271152,-0.13099268151260487,0.17979649776455606,2.271152,-0.13099268151260487,0.17979649776455606,2.271152,4.5352647058823115,19.908808326312005,354.76,4.5352647058823115,19.908808326312005,354.76,4.5352647058823115,19.908808326312005,354.76,0.6235411875000005,0.38037045275977066,1.0084199999999999,0.6235411875000005,0.38037045275977066,1.0084199999999999,0.6235411875000005,0.38037045275977066,1.0084199999999999
1,Wrist,128,1,Fall,0.33498185882352893,0.4551174427508813,2.897256,0.33498185882352893,0.4551174427508813,2.897256,0.33498185882352893,0.4551174427508813,2.897256,6.765602941176473,27.980647240133596,313.0400000000001,6.765602941176473,27.980647240133596,313.0400000000001,6.765602941176473,27.980647240133596,313.0400000000001,0.8121146250000012,0.17116152387918462,0.98126,0.8121146250000012,0.17116152387918462,0.98126,0.8121146250000012,0.17116152387918462,0.98126
1,Wrist,128,2,Fall,0.13043732521008383,0.5049366241501113,4.369308,0.13043732521008383,0.5049366241501113,4.369308,0.13043732521008383,0.5049366241501113,4.369308,4.623014705882353,39.575655232545444,427.35,4.623014705882353,39.575655232545444,427.35,4.623014705882353,39.575655232545444,427.35,0.8024386124999991,0.24891965596508964,1.00156,0.8024386124999991,0.24891965596508964,1.00156,0.8024386124999991,0.24891965596508964,1.00156
1,Wrist,129,1,Fall,-0.015735026890756464,0.2666730298984504,7.517396,-0.015735026890756464,0.2666730298984504,7.517396,-0.015735026890756464,0.2666730298984504,7.517396,-0.732573529411776,18.978722187098533,361.69000000000005,-0.732573529411776,18.978722187098533,361.69000000000005,-0.732573529411776,18.978722187098533,361.69000000000005,0.29876227499999963,0.25652678674365054,0.8118599999999999,0.29876227499999963,0.25652678674365054,0.8118599999999999,0.29876227499999963,0.25652678674365054,0.8118599999999999
1,Wrist,131,1,Fall,-0.05240017899159689,0.2787254381129702,5.450716,-0.05240017899159689,0.2787254381129702,5.450716,-0.05240017899159689,0.2787254381129702,5.450716,5.2803382352941295,33.77328388632676,805.0000000000001,5.2803382352941295,33.77328388632676,805.0000000000001,5.2803382352941295,33.77328388632676,805.0000000000001,0.3353972125000004,0.2508250397983589,0.5943,0.3353972125000004,0.2508250397983589,0.5943,0.3353972125000004,0.2508250397983589,0.5943
1,Wrist,131,2,Fall,0.4810170378151265,0.2591229059637083,3.745156,0.4810170378151265,0.2591229059637083,3.745156,0.4810170378151265,0.2591229059637083,3.745156,0.7267794117647036,15.274449054982497,262.85,0.7267794117647036,15.274449054982497,262.85,0.7267794117647036,15.274449054982497,262.85,0.9301166874999991,0.10653437845079543,0.3029599999999999,0.9301166874999991,0.10653437845079543,0.3029599999999999,0.9301166874999991,0.10653437845079543,0.3029599999999999
1,Wrist,132,1,Fall,0.29589346890756424,0.4725527889266997,6.004108,0.29589346890756424,0.4725527889266997,6.004108,0.29589346890756424,0.4725527889266997,6.004108,0.17686764705882302,24.293251050563708,496.09000000000003,0.17686764705882302,24.293251050563708,496.09000000000003,0.17686764705882302,24.293251050563708,496.09000000000003,0.3336445000000004,0.19150545246729364,0.9046799999999999,0.3336445000000004,0.19150545246729364,0.9046799999999999,0.3336445000000004,0.19150545246729364,0.9046799999999999
1,Wrist,133,1,Fall,0.035231754621849944,0.7273469659893079,5.001024,0.035231754621849944,0.7273469659893079,5.001024,0.035231754621849944,0.7273469659893079,5.001024,4.374926470588223,33.5576378387627,351.68000000000006,4.374926470588223,33.5576378387627,351.68000000000006,4.374926470588223,33.5576378387627,351.68000000000006,0.6541874499999996,0.13271489723073418,0.9105599999999999,0.6541874499999996,0.13271489723073418,0.9105599999999999,0.6541874499999996,0.13271489723073418,0.9105599999999999
1,Wrist,134,1,Fall,0.19374338151260637,0.618279852753203,9.450607999999999,0.19374338151260637,0.618279852753203,9.450607999999999,0.19374338151260637,0.618279852753203,9.450607999999999,4.1502058823531165,34.60882723812649,776.9300000000001,4.1502058823531165,34.60882723812649,776.9300000000001,4.1502058823531165,34.60882723812649,776.9300000000001,0.3145128874999997,0.259996004254017,0.9738399999999999,0.3145128874999997,0.259996004254017,0.9738399999999999,0.3145128874999997,0.259996004254017,0.9738399999999999
1,Wrist,134,2,Fall,0.54803937815126,0.27367386111039615,3.438204,0.54803937815126,0.27367386111039615,3.438204,0.54803937815126,0.27367386111039615,3.438204,1.7816029411764691,23.763522147260694,262.01,1.7816029411764691,23.763522147260694,262.01,1.7816029411764691,23.763522147260694,262.01,0.8391299874999999,0.25081463656293346,0.65324,0.8391299874999999,0.25081463656293346,0.65324,0.8391299874999999,0.25081463656293346,0.65324
1,Wrist,135,1,Fall,0.2613539361344544,0.41237391285312947,4.899276,0.2613539361344544,0.41237391285312947,4.899276,0.2613539361344544,0.41237391285312947,4.899276,3.139647058823546,24.045695318167056,322.63,3.139647058823546,24.045695318167056,322.63,3.139647058823546,24.045695318167056,322.63,1.0203578874999992,0.09254320256777782,0.36918000000000006,1.0203578874999992,0.09254320256777782,0.36918000000000006,1.0203578874999992,0.09254320256777782,0.36918000000000006
2,Wrist,1,1,No Fall,-0.24224166218487353,0.41907511613547366,2.27896,-0.24224166218487353,0.41907511613547366,2.27896,-0.24224166218487353,0.41907511613547366,2.27896,0.99330882352941,30.82972186852915,236.74,0.99330882352941,30.82972186852915,236.74,0.99330882352941,30.82972186852915,236.74,0.36006022499999996,0.10737446308143121,0.39074,0.36006022499999996,0.10737446308143121,0.39074,0.36006022499999996,0.10737446308143121,0.39074
2,Wrist,1,2,No Fall,-0.041612559663865394,0.40254637200454046,3.64902,-0.041612559663865394,0.40254637200454046,3.64902,-0.041612559663865394,0.40254637200454046,3.64902,-0.23933823529411807,24.70095694948929,261.59000000000003,-0.23933823529411807,24.70095694948929,261.59000000000003,-0.23933823529411807,24.70095694948929,261.59000000000003,0.5635545125000003,0.15255632468456715,0.5781999999999999,0.5635545125000003,0.15255632468456715,0.5781999999999999,0.5635545125000003,0.15255632468456715,0.5781999999999999
2,Wrist,1,3,No Fall,-0.1474579655462191,0.5204174393790396,3.083672,-0.1474579655462191,0.5204174393790396,3.083672,-0.1474579655462191,0.5204174393790396,3.083672,0.39500000000000174,33.835069988493885,237.58000000000004,0.39500000000000174,33.835069988493885,237.58000000000004,0.39500000000000174,33.835069988493885,237.58000000000004,0.49282878749999987,0.141698047985961,0.4496799999999999,0.49282878749999987,0.141698047985961,0.4496799999999999,0.49282878749999987,0.141698047985961,0.4496799999999999
2,Wrist,1,4,No Fall,-0.028126792436974222,0.46033470192251363,4.27122,-0.028126792436974222,0.46033470192251363,4.27122,-0.028126792436974222,0.46033470192251363,4.27122,1.0418529411764723,28.43232528531339,232.68,1.0418529411764723,28.43232528531339,232.68,1.0418529411764723,28.43232528531339,232.68,0.5305397124999995,0.11111490548101488,0.48453999999999997,0.5305397124999995,0.11111490548101488,0.48453999999999997,0.5305397124999995,0.11111490548101488,0.48453999999999997
2,Wrist,2,1,No Fall,-0.23969893613445392,0.4212518607856731,2.27896,-0.23969893613445392,0.4212518607856731,2.27896,-0.23969893613445392,0.4212518607856731,2.27896,0.9473088235294077,30.829330381515756,236.74,0.9473088235294077,30.829330381515756,236.74,0.9473088235294077,30.829330381515756,236.74,0.3806027749999995,0.12969045104587384,0.3974599999999999,0.3806027749999995,0.12969045104587384,0.3974599999999999,0.3806027749999995,0.12969045104587384,0.3974599999999999
2,Wrist,2,2,No Fall,-0.04104505462184847,0.40279154282382673,3.64902,-0.04104505462184847,0.40279154282382673,3.64902,-0.04104505462184847,0.40279154282382673,3.64902,-0.18229411764705827,24.702177741123876,261.59000000000003,-0.18229411764705827,24.702177741123876,261.59000000000003,-0.18229411764705827,24.702177741123876,261.59000000000003,0.5736360875000003,0.15715800297830831,0.5781999999999999,0.5736360875000003,0.15715800297830831,0.5781999999999999,0.5736360875000003,0.15715800297830831,0.5781999999999999
2,Wrist,2,3,No Fall,-0.15268802352941174,0.5168191511246037,3.083672,-0.15268802352941174,0.5168191511246037,3.083672,-0.15268802352941174,0.5168191511246037,3.083672,0.3799117647058838,33.83483171441619,237.58000000000004,0.3799117647058838,33.83483171441619,237.58000000000004,0.3799117647058838,33.83483171441619,237.58000000000004,0.49535088749999995,0.1435838886988929,0.4496799999999999,0.49535088749999995,0.1435838886988929,0.4496799999999999,0.49535088749999995,0.1435838886988929,0.4496799999999999
2,Wrist,2,4,No Fall,-0.026346925210083524,0.4611838337851797,4.27122,-0.026346925210083524,0.4611838337851797,4.27122,-0.026346925210083524,0.4611838337851797,4.27122,1.0599264705882268,28.43234248225074,232.68,1.0599264705882268,28.43234248225074,232.68,1.0599264705882268,28.43234248225074,232.68,0.5242131999999992,0.10821526355741974,0.48453999999999997,0.5242131999999992,0.10821526355741974,0.48453999999999997,0.5242131999999992,0.10821526355741974,0.48453999999999997
2,Wrist,3,1,No Fall,-0.23701852436974874,0.4234582386996831,2.27896,-0.23701852436974874,0.4234582386996831,2.27896,-0.23701852436974874,0.4234582386996831,2.27896,0.9888676470588194,30.82445199386614,236.74,0.9888676470588194,30.82445199386614,236.74,0.9888676470588194,30.82445199386614,236.74,0.39686683749999946,0.1432705716064149,0.39886,0.39686683749999946,0.1432705716064149,0.39886,0.39686683749999946,0.1432705716064149,0.39886
